ACCELEROMETER X,ACCELEROMETER Y,ACCELEROMETER Z,GRAVITY X,GRAVITY Y,GRAVITY Z,LINEAR ACCELERATION X,LINEAR ACCELERATION Y,LINEAR ACCELERATION Z,GYROSCOPE X,GYROSCOPE Y,GYROSCOPE Z,LIGHT (lux),MAGNETIC FIELD X,MAGNETIC FIELD Y,MAGNETIC FIELD Z,ORIENTATION Z,ORIENTATION X,ORIENTATION Y,PROXIMITY,SOUND LEVEL,LOCATION Latitude : ,LOCATION Longitude : ,LOCATION Altitude ( m),LOCATION Altitude-google ( m),LOCATION Speed ( Kmh),LOCATION Accuracy ( m),LOCATION ORIENTATION (°),Satellites in range,Time,YYYY-MO-DD HH-MI-SS_SSS
-0.0934,2.8467,9.3781,-0.7001,2.1135,9.5506,0.5612,0.8707,0.4489,-0.0385,0.1904,-0.1409,309,-0.88,17.63,-8.54,7.65,-12.51,3.97,5,35.262,12.922314,77.68371,829.5,NaN,,23.618,,0 / 31,11,2018-11-06 12:00:09:522
-0.0503,2.7749,9.5505,-0.7321,2.1156,9.5477,0.6344,0.7964,0.6214,0.0371,0.2128,-0.2123,309,-0.88,17.63,-8.54,7.65,-12.51,3.97,5,35.262,12.922314,77.68371,829.5,NaN,,23.618,,0 / 31,21,2018-11-06 12:00:09:532
-0.0503,2.7749,9.5505,-0.7321,2.1156,9.5477,0.6344,0.7964,0.6214,0.0371,0.2128,-0.2123,309,-0.88,17.63,-8.54,7.65,-12.51,3.97,5,35.262,12.922314,77.68371,829.5,NaN,,23.618,,0 / 31,30,2018-11-06 12:00:09:541
-0.1796,2.7725,9.5481,-0.7668,2.1294,9.5419,0.5377,0.7804,0.6217,0.1319,0.2,-0.2709,309,-2.38,17.33,-8.84,8.34,-12.54,4.59,5,35.262,12.922314,77.68371,829.5,NaN,,23.618,,0 / 31,40,2018-11-06 12:00:09:551
-0.5914,2.739,9.0956,-0.8059,2.1603,9.5317,0.1628,0.7175,0.1764,0.1724,0.1159,-0.2656,309,-0.73,15.68,-7.64,8.34,-12.54,4.59,5,35.262,12.922314,77.68371,829.5,NaN,,23.618,,0 / 31,50,2018-11-06 12:00:09:561
-0.5914,2.739,9.0956,-0.8059,2.1603,9.5317,0.1628,0.7175,0.1764,0.1724,0.1159,-0.2656,309,-0.73,15.68,-7.64,8.34,-12.54,4.59,5,35.262,12.922314,77.68371,829.5,NaN,,23.618,,0 / 31,61,2018-11-06 12:00:09:572
-0.9098,2.7294,8.9016,-0.8194,2.1801,9.5261,-0.143,0.6893,-0.013,0.1192,0.0083,-0.2059,309,-2.68,17.33,-7.79,8.34,-12.54,4.59,5,35.262,12.922314,77.68371,829.5,NaN,,23.618,,0 / 31,72,2018-11-06 12:00:09:583
-0.9098,2.7294,8.9016,-0.8194,2.1801,9.5261,-0.143,0.6893,-0.013,0.1192,0.0083,-0.2059,309,-2.68,17.33,-7.79,8.34,-12.54,4.59,5,35.262,12.922314,77.68371,829.5,NaN,,23.618,,0 / 31,80,2018-11-06 12:00:09:591
-1.0846,2.7054,8.9519,-0.8205,2.193,9.523,-0.3167,0.6531,0.0394,0.0339,-0.045,-0.0941,309,-4.18,17.33,-8.09,14.34,-12.92,4.92,5,35.262,12.922314,77.68371,829.5,NaN,,23.618,,0 / 31,91,2018-11-06 12:00:09:602
-0.984,2.6288,8.9447,-0.8164,2.1968,9.5225,-0.2199,0.5727,0.032,0.0084,-0.0461,-0.0195,309,-4.18,17.33,-8.09,14.34,-12.92,4.92,5,35.262,12.922314,77.68371,829.5,NaN,,23.618,,0 / 31,101,2018-11-06 12:00:09:612
-0.984,2.6288,8.9447,-0.8164,2.1968,9.5225,-0.2199,0.5727,0.032,0.0084,-0.0461,-0.0195,309,-2.98,17.63,-9.29,14.34,-12.92,4.92,5,35.262,12.922314,77.68371,829.5,NaN,,23.618,,0 / 31,110,2018-11-06 12:00:09:621
-0.6369,2.6145,8.928,-0.8095,2.1972,9.523,0.1209,0.5578,0.014,-0.0332,-0.0173,0.054,309,-2.98,17.63,-9.29,14.34,-12.92,4.92,5,35.262,12.922314,77.68371,829.5,NaN,,23.618,,0 / 31,120,2018-11-06 12:00:09:631
-0.4357,2.5786,9.007,-0.8036,2.1923,9.5246,0.3165,0.5263,0.0909,-0.063,-0.0205,0.0764,250,-0.73,17.48,-8.69,5.4,-12.92,4.82,5,35.262,12.922314,77.68371,829.5,NaN,,23.618,,0 / 31,131,2018-11-06 12:00:09:642
-0.4357,2.5786,9.007,-0.8036,2.1923,9.5246,0.3165,0.5263,0.0909,-0.063,-0.0205,0.0764,250,-0.73,17.48,-8.69,5.4,-12.92,4.82,5,35.262,12.922314,77.68371,829.5,NaN,,23.618,,0 / 31,141,2018-11-06 12:00:09:652
-0.3783,2.4924,9.1411,-0.7954,2.1836,9.5273,0.3664,0.4481,0.2216,-0.0864,-0.0322,0.0806,250,-1.48,18.83,-10.04,5.4,-12.92,4.82,5,35.262,12.922314,77.68371,829.5,NaN,,23.618,,0 / 31,150,2018-11-06 12:00:09:661
-0.3783,2.4924,9.1411,-0.7954,2.1836,9.5273,0.3664,0.4481,0.2216,-0.0864,-0.0322,0.0806,250,-1.48,18.83,-10.04,5.4,-12.92,4.82,5,35.262,12.922314,77.68371,829.5,NaN,,23.618,,0 / 31,160,2018-11-06 12:00:09:671
-0.486,2.3894,9.1387,-0.7816,2.1722,9.5311,0.2458,0.3554,0.214,-0.0598,-0.0556,0.0604,250,-3.43,15.83,-8.84,5.4,-12.92,4.82,5,36.274,12.922314,77.68371,829.5,NaN,,23.618,,0 / 31,171,2018-11-06 12:00:09:682
-0.486,2.3894,9.1387,-0.7816,2.1722,9.5311,0.2458,0.3554,0.214,-0.0609,-0.0333,0.0657,250,-3.43,15.83,-8.84,5.4,-12.92,4.82,5,36.274,12.922314,77.68371,829.5,NaN,,23.618,,0 / 31,181,2018-11-06 12:00:09:692
-0.4525,2.4229,8.8083,-0.7725,2.1661,9.5332,0.2708,0.3945,-0.1187,-0.0609,-0.0333,0.0657,250,-0.88,17.63,-8.09,4.87,-12.76,4.63,5,36.274,12.922314,77.68371,829.5,NaN,,23.618,,0 / 31,191,2018-11-06 12:00:09:702
-0.316,2.4565,8.5282,-0.7674,2.1507,9.5371,0.4671,0.474,-0.4059,-0.112,0.0104,0.0828,250,-0.88,17.63,-8.09,4.87,-12.76,4.63,5,36.274,12.922314,77.68371,829.5,NaN,,23.618,,0 / 31,200,2018-11-06 12:00:09:711
-0.316,2.4565,8.5282,-0.7674,2.1507,9.5371,0.4671,0.474,-0.4059,-0.112,0.0104,0.0828,250,-2.38,17.33,-7.04,4.87,-12.76,4.63,5,36.274,12.922314,77.68371,829.5,NaN,,23.618,,0 / 31,211,2018-11-06 12:00:09:722
-0.0287,2.5666,8.6072,-0.7669,2.1292,9.542,0.6892,0.5734,-0.3255,-0.1951,0.0445,0.0956,250,-2.38,17.33,-7.04,4.87,-12.76,4.63,5,36.274,12.922314,77.68371,829.5,NaN,,23.618,,0 / 31,221,2018-11-06 12:00:09:732
-0.0287,2.5666,8.6072,-0.7669,2.1292,9.542,0.6892,0.5734,-0.3255,-0.1951,0.0445,0.0956,250,-2.38,17.33,-7.04,4.87,-12.76,4.63,5,36.274,12.922314,77.68371,829.5,NaN,,23.618,,0 / 31,230,2018-11-06 12:00:09:741
0.0886,2.6456,8.9663,-0.7704,2.1036,9.5474,0.8098,0.6764,0.0287,-0.2068,0.0764,0.0764,250,-2.68,16.58,-6.74,11.14,-12.39,4.61,5,36.274,12.922314,77.68371,829.5,NaN,,23.618,,0 / 31,240,2018-11-06 12:00:09:751
-0.1077,2.6552,9.3182,-0.7766,2.0764,9.5528,0.6194,0.711,0.3736,-0.1312,0.0402,0.0231,250,-3.28,16.43,-7.94,11.14,-12.39,4.61,5,36.274,12.922314,77.68371,829.5,NaN,,23.618,,0 / 31,251,2018-11-06 12:00:09:762
-0.1077,2.6552,9.3182,-0.7766,2.0764,9.5528,0.6194,0.711,0.3736,-0.1312,0.0402,0.0231,250,-3.28,16.43,-7.94,11.14,-12.39,4.61,5,36.274,12.922314,77.68371,829.5,NaN,,23.618,,0 / 31,261,2018-11-06 12:00:09:772
-0.237,2.6336,9.0381,-0.7763,2.0695,9.5543,0.4899,0.7077,0.2205,-0.0587,-0.012,-0.0067,250,-1.78,17.77,-7.64,11.14,-12.39,4.61,5,36.274,12.922314,77.68371,829.5,NaN,,23.618,,0 / 31,271,2018-11-06 12:00:09:782
-0.237,2.6336,9.0381,-0.7763,2.0695,9.5543,0.4899,0.7077,0.2205,-0.0587,-0.012,-0.0067,250,-1.78,17.77,-7.64,11.14,-12.39,4.61,5,36.274,12.922314,77.68371,829.5,NaN,,23.618,,0 / 31,280,2018-11-06 12:00:09:791
-0.2993,2.739,8.5569,-0.7689,2.0648,9.5559,0.4207,0.8055,-0.3915,-0.0406,-0.0439,-0.0131,228,-1.48,18.53,-7.64,4.63,-12.15,4.6,5,36.274,12.922314,77.68371,829.5,NaN,,23.618,,0 / 31,290,2018-11-06 12:00:09:801
-0.3495,2.8467,8.2576,-0.7586,2.058,9.5582,0.3607,0.92,-0.6908,-0.0843,-0.0397,0.0018,228,-1.48,18.53,-7.64,4.63,-12.15,4.6,5,36.274,12.922314,77.68371,829.5,NaN,,23.618,,0 / 31,301,2018-11-06 12:00:09:812
-0.3495,2.8467,8.2576,-0.7586,2.058,9.5582,0.3607,0.92,-0.6908,-0.0843,-0.0397,0.0018,228,-1.48,18.53,-7.64,4.63,-12.15,4.6,5,36.274,12.922314,77.68371,829.5,NaN,,23.618,,0 / 31,311,2018-11-06 12:00:09:822
-0.3495,2.8371,8.26,-0.7548,2.0467,9.5609,0.3569,0.9214,-0.689,-0.1216,-0.0024,0.0284,228,-1.93,17.93,-8.09,4.63,-12.15,4.6,5,36.274,12.922314,77.68371,829.5,NaN,,23.618,,0 / 31,320,2018-11-06 12:00:09:831
-0.3495,2.8371,8.26,-0.7548,2.0467,9.5609,0.3569,0.9214,-0.689,-0.1216,-0.0024,0.0284,228,-1.93,17.93,-8.09,4.63,-12.15,4.6,5,36.274,12.922314,77.68371,829.5,NaN,,23.618,,0 / 31,330,2018-11-06 12:00:09:841
-0.3807,2.8419,8.667,-0.7568,2.0283,9.5647,0.3276,0.9437,-0.2842,-0.1301,0.052,0.0657,228,-1.93,17.63,-8.09,7.77,-11.94,4.52,5,36.274,12.922314,77.68371,829.5,NaN,,23.618,,0 / 31,340,2018-11-06 12:00:09:851
-0.4501,2.806,8.8729,-0.7603,2.0161,9.567,0.2614,0.9192,-0.0806,-0.112,0.0413,0.0892,228,-0.13,16.58,-6.44,7.77,-11.94,4.52,5,36.274,12.922314,77.68371,829.5,NaN,,23.618,,0 / 31,351,2018-11-06 12:00:09:862
-0.4501,2.806,8.8729,-0.7603,2.0161,9.567,0.2614,0.9192,-0.0806,-0.112,0.0413,0.0892,228,-0.13,16.58,-6.44,7.77,-11.94,4.52,5,36.274,12.922314,77.68371,829.5,NaN,,23.618,,0 / 31,361,2018-11-06 12:00:09:872
-0.4357,2.7677,8.9136,-0.7565,2.0043,9.5698,0.2723,0.8918,-0.0432,-0.0886,-0.0088,0.1051,228,-2.68,17.33,-7.04,7.77,-11.94,4.52,5,36.274,12.922314,77.68371,829.5,NaN,,23.618,,0 / 31,371,2018-11-06 12:00:09:882
-0.4357,2.7677,8.9136,-0.7565,2.0043,9.5698,0.2723,0.8918,-0.0432,-0.0886,-0.0088,0.1051,228,-2.68,17.33,-7.04,7.77,-11.94,4.52,5,36.274,12.922314,77.68371,829.5,NaN,,23.618,,0 / 31,381,2018-11-06 12:00:09:892
-0.4477,2.8874,8.746,-0.7498,1.9976,9.5717,0.2541,1.0178,-0.2126,-0.0854,-0.012,0.1264,190,-2.08,17.77,-5.84,7.46,-11.75,4.48,5,36.274,12.922314,77.68371,829.5,NaN,,23.618,,0 / 31,391,2018-11-06 12:00:09:902
-0.4788,2.9736,8.7604,-0.7454,1.9896,9.5737,0.2188,1.1114,-0.2,-0.1056,0.02,0.1616,190,-2.08,17.77,-5.84,7.46,-11.75,4.48,5,36.274,12.922314,77.68371,829.5,NaN,,23.618,,0 / 31,401,2018-11-06 12:00:09:912
-0.4788,2.9736,8.7604,-0.7454,1.9896,9.5737,0.2188,1.1114,-0.2,-0.1056,0.02,0.1616,190,-2.08,17.77,-5.84,7.46,-11.75,4.48,5,36.274,12.922314,77.68371,829.5,NaN,,23.618,,0 / 31,411,2018-11-06 12:00:09:922
-0.3352,3.0742,9.0956,-0.7451,1.9747,9.5768,0.3623,1.2258,0.1314,-0.1376,0.0562,0.2202,190,-2.53,17.48,-6.59,7.46,-11.75,4.48,5,36.274,12.922314,77.68371,829.5,NaN,,23.618,,0 / 31,421,2018-11-06 12:00:09:932
-0.3352,3.0742,9.0956,-0.7451,1.9747,9.5768,0.3623,1.2258,0.1314,-0.1376,0.0562,0.2202,190,-2.53,17.48,-6.59,7.46,-11.75,4.48,5,36.274,12.922314,77.68371,829.5,NaN,,23.618,,0 / 31,431,2018-11-06 12:00:09:942
-0.2418,3.0694,9.2991,-0.7447,1.9632,9.5792,0.4554,1.2314,0.3309,-0.1259,0.0541,0.2436,190,-1.03,15.38,-5.84,5.26,-11.55,4.45,5,36.274,12.922314,77.68371,829.5,NaN,,23.618,,0 / 31,441,2018-11-06 12:00:09:952
-0.1844,3.043,9.3685,-0.7381,1.9543,9.5816,0.5068,1.213,0.396,-0.1077,-0.0024,0.2564,190,0.02,18.53,-6.59,5.26,-11.55,4.45,5,36.274,12.922314,77.68371,829.5,NaN,,23.618,,0 / 31,451,2018-11-06 12:00:09:962
-0.1844,3.043,9.3685,-0.7381,1.9543,9.5816,0.5068,1.213,0.396,-0.1077,-0.0024,0.2564,190,0.02,18.53,-6.59,5.26,-11.55,4.45,5,36.274,12.922314,77.68371,829.5,NaN,,23.618,,0 / 31,460,2018-11-06 12:00:09:971
-0.1676,3.0789,9.4212,-0.7155,1.9469,9.5848,0.5027,1.2552,0.4426,-0.0747,-0.078,0.25,190,-1.93,17.63,-6.44,5.26,-11.55,4.45,5,36.274,12.922314,77.68371,829.5,NaN,,23.618,,0 / 31,470,2018-11-06 12:00:09:981
-0.1676,3.0789,9.4212,-0.7155,1.9469,9.5848,0.5027,1.2552,0.4426,-0.0747,-0.078,0.25,190,-1.93,17.63,-6.44,5.26,-11.55,4.45,5,36.274,12.922314,77.68371,829.5,NaN,,23.618,,0 / 31,480,2018-11-06 12:00:09:991
-0.0503,3.1196,9.256,-0.6923,1.9466,9.5865,0.5984,1.2957,0.2738,-0.0438,-0.0993,0.2458,190,-0.58,17.63,-5.24,4.17,-11.45,4.13,5,36.274,12.922314,77.68371,829.5,NaN,,23.618,,0 / 31,491,2018-11-06 12:00:10:002
-0.0287,3.158,9.1698,-0.666,1.952,9.5873,0.5954,1.3286,0.1848,-0.0097,-0.061,0.217,190,-0.58,17.63,-5.24,4.17,-11.45,4.13,5,38.141,12.922314,77.68371,829.5,NaN,,23.618,,0 / 31,501,2018-11-06 12:00:10:012
-0.0287,3.158,9.1698,-0.666,1.952,9.5873,0.5954,1.3286,0.1848,-0.0097,-0.061,0.217,190,-0.58,17.63,-5.24,4.17,-11.45,4.13,5,38.141,12.922314,77.68371,829.5,NaN,,23.618,,0 / 31,511,2018-11-06 12:00:10:022
-0.1101,3.1005,9.2847,-0.6528,1.9602,9.5865,0.5018,1.2631,0.2986,0.0222,-0.0237,0.1946,190,0.02,18.23,-5.84,4.17,-11.45,4.13,5,38.141,12.922314,77.68371,829.5,NaN,,23.618,,0 / 31,521,2018-11-06 12:00:10:032
-0.1101,3.1005,9.2847,-0.6528,1.9602,9.5865,0.5018,1.2631,0.2986,0.0222,-0.0237,0.1946,190,0.02,18.23,-5.84,4.17,-11.45,4.13,5,38.141,12.922314,77.68371,829.5,NaN,,23.618,,0 / 31,531,2018-11-06 12:00:10:042
-0.2322,3.1388,9.414,-0.6476,1.9736,9.5841,0.3749,1.2883,0.428,0.0638,0.0328,0.1712,117,-0.88,17.93,-5.69,4.26,-11.61,3.87,5,38.141,12.922314,77.68371,829.5,NaN,,23.618,,0 / 31,540,2018-11-06 12:00:10:051
-0.34,3.1364,9.5122,-0.6501,1.999,9.5787,0.2698,1.2614,0.5277,0.0979,0.0701,0.1808,117,-1.93,17.33,-5.24,4.26,-11.61,3.87,5,38.141,12.922314,77.68371,829.5,NaN,,23.618,,0 / 31,550,2018-11-06 12:00:10:061
-0.34,3.1364,9.5122,-0.6501,1.999,9.5787,0.2698,1.2614,0.5277,0.0979,0.0701,0.1808,117,-1.93,17.33,-5.24,4.26,-11.61,3.87,5,38.141,12.922314,77.68371,829.5,NaN,,23.618,,0 / 31,561,2018-11-06 12:00:10:072
-0.5818,2.8659,9.6774,-0.657,2.0178,9.5743,0.0346,0.9726,0.694,0.0851,0.1095,0.2053,117,-0.73,18.23,-5.09,4.26,-11.61,3.87,5,38.141,12.922314,77.68371,829.5,NaN,,23.618,,0 / 31,571,2018-11-06 12:00:10:082
-0.5818,2.8659,9.6774,-0.657,2.0178,9.5743,0.0346,0.9726,0.694,0.0851,0.1095,0.2053,117,-0.73,18.23,-5.09,4.26,-11.61,3.87,5,38.141,12.922314,77.68371,829.5,NaN,,23.618,,0 / 31,581,2018-11-06 12:00:10:092
-0.9361,2.387,10.0197,-0.6756,2.0306,9.5703,-0.3019,0.4807,1.0354,0.002,0.1713,0.2596,117,-0.13,19.73,-5.69,1.16,-11.95,4.04,5,38.141,12.922314,77.68371,829.5,NaN,,23.618,,0 / 31,590,2018-11-06 12:00:10:101
-1.0439,2.2458,10.4459,-0.6946,2.0243,9.5703,-0.3914,0.3443,1.4565,-0.0992,0.1851,0.2852,117,-0.13,19.73,-5.69,1.16,-11.95,4.04,5,38.141,12.922314,77.68371,829.5,NaN,,23.618,,0 / 31,602,2018-11-06 12:00:10:113
-1.0439,2.2458,10.4459,-0.6946,2.0243,9.5703,-0.3914,0.3443,1.4565,-0.0992,0.1851,0.2852,117,-0.13,18.38,-4.94,1.16,-11.95,4.04,5,38.141,12.922314,77.68371,829.5,NaN,,23.618,,0 / 31,611,2018-11-06 12:00:10:122
-0.9505,2.4948,10.9894,-0.7117,2.0001,9.5741,-0.2813,0.6141,1.9872,-0.1781,0.1223,0.348,117,-0.13,18.38,-4.94,1.16,-11.95,4.04,5,38.141,12.922314,77.68371,829.5,NaN,,23.618,,0 / 31,620,2018-11-06 12:00:10:131
-0.9505,2.4948,10.9894,-0.7117,2.0001,9.5741,-0.2813,0.6141,1.9872,-0.1781,0.1223,0.348,117,-0.13,18.38,-4.94,1.16,-11.95,4.04,5,38.141,12.922314,77.68371,829.5,NaN,,23.618,,0 / 31,631,2018-11-06 12:00:10:142
-0.3903,2.8635,11.2982,-0.7097,1.9812,9.5782,0.2777,0.9988,2.2837,-0.1631,0.0488,0.4034,82,-0.13,19.43,-3.14,0.66,-11.66,4.24,5,38.141,12.922314,77.68371,829.5,NaN,,23.618,,0 / 31,641,2018-11-06 12:00:10:152
0.0383,3.0143,11.2935,-0.6924,1.973,9.5811,0.6906,1.1556,2.2671,-0.0758,-0.0535,0.4247,82,0.32,20.33,-6.59,0.66,-11.66,4.24,5,38.141,12.922314,77.68371,829.5,NaN,,23.618,,0 / 31,651,2018-11-06 12:00:10:162
0.0383,3.0143,11.2935,-0.6924,1.973,9.5811,0.6906,1.1556,2.2671,-0.0758,-0.0535,0.4247,82,0.32,20.33,-6.59,0.66,-11.66,4.24,5,38.141,12.922314,77.68371,829.5,NaN,,23.618,,0 / 31,660,2018-11-06 12:00:10:171
0.5267,3.0311,11.0253,-0.6462,1.9853,9.5818,1.1362,1.1585,1.9875,0.0893,-0.1675,0.3214,82,0.92,18.38,-6.44,0.66,-11.66,4.24,5,38.141,12.922314,77.68371,829.5,NaN,,23.618,,0 / 31,670,2018-11-06 12:00:10:181
0.5267,3.0311,11.0253,-0.6462,1.9853,9.5818,1.1362,1.1585,1.9875,0.0893,-0.1675,0.3214,82,0.92,18.38,-6.44,0.66,-11.66,4.24,5,38.141,12.922314,77.68371,829.5,NaN,,23.618,,0 / 31,681,2018-11-06 12:00:10:192
0.4094,2.8946,10.6542,-0.6108,2.0217,9.5765,0.986,0.9862,1.6145,0.2939,-0.1579,0.2074,82,-0.13,17.93,-3.89,0.79,-11.9,3.65,5,38.141,12.922314,77.68371,829.5,NaN,,23.618,,0 / 31,691,2018-11-06 12:00:10:202
0.0646,2.6552,9.8067,-0.5856,2.0865,9.5642,0.6177,0.6847,0.7742,0.5005,-0.1025,0.1254,82,-0.13,17.93,-3.89,0.79,-11.9,3.65,5,38.141,12.922314,77.68371,829.5,NaN,,23.618,,0 / 31,700,2018-11-06 12:00:10:211
0.0646,2.6552,9.8067,-0.5856,2.0865,9.5642,0.6177,0.6847,0.7742,0.5005,-0.1025,0.1254,82,-0.13,17.93,-3.89,0.79,-11.9,3.65,5,38.141,12.922314,77.68371,829.5,NaN,,23.618,,0 / 31,711,2018-11-06 12:00:10:222
-0.6081,2.3846,8.4324,-0.5693,2.1951,9.5409,-0.0705,0.3116,-0.5779,0.5517,-0.0322,0.135,82,0.92,18.68,-4.19,0.79,-11.9,3.65,5,38.141,12.922314,77.68371,829.5,NaN,,23.618,,0 / 31,721,2018-11-06 12:00:10:232
-0.6081,2.3846,8.4324,-0.5693,2.1951,9.5409,-0.0705,0.3116,-0.5779,0.5517,-0.0322,0.135,82,0.92,18.68,-4.19,0.79,-11.9,3.65,5,38.141,12.922314,77.68371,829.5,NaN,,23.618,,0 / 31,731,2018-11-06 12:00:10:242
-0.7973,2.2553,8.2313,-0.5649,2.2635,9.5251,-0.264,0.1183,-0.7615,0.4132,0.02,0.1957,82,-0.88,20.18,-5.69,3.72,-13.34,3.39,5,38.141,12.922314,77.68371,829.5,NaN,,23.618,,0 / 31,741,2018-11-06 12:00:10:252
-0.9026,2.0255,9.2847,-0.5673,2.3217,9.511,-0.3671,-0.1662,0.3062,0.2566,0.0818,0.217,82,1.52,19.88,-6.59,3.72,-13.34,3.39,5,38.141,12.922314,77.68371,829.5,NaN,,23.618,,0 / 31,750,2018-11-06 12:00:10:261
-0.9026,2.0255,9.2847,-0.5673,2.3217,9.511,-0.3671,-0.1662,0.3062,0.2566,0.0818,0.217,82,1.52,19.88,-6.59,3.72,-13.34,3.39,5,38.141,12.922314,77.68371,829.5,NaN,,23.618,,0 / 31,761,2018-11-06 12:00:10:272
-1.257,2.0518,9.8952,-0.5799,2.3598,9.5008,-0.7094,-0.1766,0.9236,0.2896,0.1414,0.1936,82,0.77,20.63,-5.54,358.34,-13.92,3.49,5,38.141,12.922314,77.68371,829.5,NaN,,23.618,,0 / 31,771,2018-11-06 12:00:10:282
-1.257,2.0518,9.8952,-0.5799,2.3598,9.5008,-0.7094,-0.1766,0.9236,0.2896,0.1414,0.1936,82,0.77,20.63,-5.54,358.34,-13.92,3.49,5,38.141,12.922314,77.68371,829.5,NaN,,23.618,,0 / 31,780,2018-11-06 12:00:10:291
-1.6544,1.9489,9.9479,-0.6002,2.4072,9.4877,-1.0874,-0.3251,0.9852,0.362,0.1798,0.2117,73,2.12,21.38,-6.14,358.34,-13.92,3.49,5,38.141,12.922314,77.68371,829.5,NaN,,23.618,,0 / 31,790,2018-11-06 12:00:10:301
-1.6544,1.9489,9.9479,-0.6002,2.4072,9.4877,-1.0874,-0.3251,0.9852,0.362,0.1798,0.2117,73,2.12,21.38,-6.14,358.34,-13.92,3.49,5,38.141,12.922314,77.68371,829.5,NaN,,23.618,,0 / 31,800,2018-11-06 12:00:10:311
-1.7669,1.9537,9.505,-0.6171,2.4781,9.4683,-1.1837,-0.3882,0.5571,0.3791,0.069,0.2926,73,2.12,21.38,-6.14,358.34,-13.92,3.49,5,38.141,12.922314,77.68371,829.5,NaN,,23.618,,0 / 31,811,2018-11-06 12:00:10:322
-1.494,1.9249,8.9878,-0.6043,2.5291,9.4556,-0.9229,-0.4653,0.0512,0.3429,-0.0844,0.3608,73,0.92,19.73,-6.74,358.51,-14.95,3.66,5,38.368,12.922314,77.68371,829.5,NaN,,23.618,,0 / 31,821,2018-11-06 12:00:10:332
-1.494,1.9249,8.9878,-0.6043,2.5291,9.4556,-0.9229,-0.4653,0.0512,0.3429,-0.0844,0.3608,73,0.92,19.73,-6.74,358.51,-14.95,3.66,5,38.368,12.922314,77.68371,829.5,NaN,,23.618,,0 / 31,831,2018-11-06 12:00:10:342
-0.9433,1.9082,8.1211,-0.5521,2.5893,9.4425,-0.4217,-0.5382,-0.8004,0.2939,-0.2421,0.4023,73,1.97,18.68,-4.94,358.51,-14.95,3.66,5,38.368,12.922314,77.68371,829.5,NaN,,23.618,,0 / 31,841,2018-11-06 12:00:10:352
-0.9433,1.9082,8.1211,-0.5521,2.5893,9.4425,-0.4217,-0.5382,-0.8004,0.2939,-0.2421,0.4023,73,1.97,18.68,-4.94,358.51,-14.95,3.66,5,38.368,12.922314,77.68371,829.5,NaN,,23.618,,0 / 31,851,2018-11-06 12:00:10:362
-0.5004,1.8028,7.3837,-0.5011,2.6301,9.4341,-0.0272,-0.6807,-1.5248,0.2726,-0.2676,0.3885,73,1.82,18.23,-5.54,354.94,-15.56,3.04,5,38.368,12.922314,77.68371,829.5,NaN,,23.618,,0 / 31,861,2018-11-06 12:00:10:372
0.0551,1.7023,6.5098,-0.4333,2.6767,9.4243,0.4637,-0.8223,-2.3787,0.2108,-0.2612,0.3065,73,2.42,20.48,-5.69,354.94,-15.56,3.04,5,38.368,12.922314,77.68371,829.5,NaN,,23.618,,0 / 31,870,2018-11-06 12:00:10:381
0.0551,1.7023,6.5098,-0.4333,2.6767,9.4243,0.4637,-0.8223,-2.3787,0.2108,-0.2612,0.3065,73,2.42,20.48,-5.69,354.94,-15.56,3.04,5,38.368,12.922314,77.68371,829.5,NaN,,23.618,,0 / 31,880,2018-11-06 12:00:10:391
0.2658,1.7095,6.0597,-0.3859,2.7011,9.4194,0.6293,-0.8352,-2.814,0.1458,-0.2549,0.2085,73,4.22,20.48,-4.64,349.59,-15.99,2.35,5,38.368,12.922314,77.68371,829.5,NaN,,23.618,,0 / 31,891,2018-11-06 12:00:10:402
0.3304,1.8196,5.6527,-0.3442,2.7177,9.4163,0.6542,-0.7373,-3.2065,0.0947,-0.2453,0.0913,73,4.22,20.48,-4.64,349.59,-15.99,2.35,5,38.368,12.922314,77.68371,829.5,NaN,,23.618,,0 / 31,901,2018-11-06 12:00:10:412
0.3304,1.8196,5.6527,-0.3442,2.7177,9.4163,0.6542,-0.7373,-3.2065,0.0947,-0.2453,0.0913,73,4.22,20.48,-4.64,349.59,-15.99,2.35,5,38.368,12.922314,77.68371,829.5,NaN,,23.618,,0 / 31,911,2018-11-06 12:00:10:422
0.1915,2.0207,5.5665,-0.3038,2.7317,9.4136,0.4769,-0.5447,-3.2741,0.0552,-0.1824,-0.0664,73,2.72,20.48,-4.64,349.59,-15.99,2.35,5,38.368,12.922314,77.68371,829.5,NaN,,23.618,,0 / 31,921,2018-11-06 12:00:10:432
0.1915,2.0207,5.5665,-0.3038,2.7317,9.4136,0.4769,-0.5447,-3.2741,0.0552,-0.1824,-0.0664,73,2.72,20.48,-4.64,349.59,-15.99,2.35,5,38.368,12.922314,77.68371,829.5,NaN,,23.618,,0 / 31,930,2018-11-06 12:00:10:441
-0.0383,2.1548,5.5258,-0.2887,2.741,9.4114,0.2324,-0.4159,-3.3008,0.0616,-0.1206,-0.1644,66,1.97,20.48,-4.64,354.88,-16.23,1.76,5,38.368,12.922314,77.68371,829.5,NaN,,23.618,,0 / 31,940,2018-11-06 12:00:10:451
-0.2849,2.3535,5.4085,-0.2873,2.7518,9.4083,-0.0158,-0.2238,-3.4033,0.0648,-0.0503,-0.24,66,1.52,20.63,-6.14,354.88,-16.23,1.76,5,38.368,12.922314,77.68371,829.5,NaN,,23.618,,0 / 31,951,2018-11-06 12:00:10:462
-0.2849,2.3535,5.4085,-0.2873,2.7518,9.4083,-0.0158,-0.2238,-3.4033,0.0648,-0.0503,-0.24,66,1.52,20.63,-6.14,354.88,-16.23,1.76,5,38.368,12.922314,77.68371,829.5,NaN,,23.618,,0 / 31,961,2018-11-06 12:00:10:472
-0.8619,2.7174,5.5761,-0.3058,2.7661,9.4035,-0.576,0.1312,-3.2159,0.0584,0.0466,-0.2752,66,1.22,22.28,-4.94,357.87,-16.38,1.86,5,38.368,12.922314,77.68371,829.5,NaN,,23.618,,0 / 31,971,2018-11-06 12:00:10:482
-0.8619,2.7174,5.5761,-0.3058,2.7661,9.4035,-0.576,0.1312,-3.2159,0.0584,0.0466,-0.2752,66,1.22,22.28,-4.94,357.87,-16.38,1.86,5,38.368,12.922314,77.68371,829.5,NaN,,23.618,,0 / 31,981,2018-11-06 12:00:10:492
-1.2258,2.9425,5.9017,-0.3336,2.7768,9.3994,-0.9143,0.3491,-2.8765,0.0552,0.1255,-0.2347,66,4.22,21.22,-5.24,357.87,-16.38,1.86,5,38.368,12.922314,77.68371,829.5,NaN,,23.618,,0 / 31,991,2018-11-06 12:00:10:502
-1.3695,3.1651,6.2728,-0.3788,2.7934,9.3927,-1.0161,0.5597,-2.488,0.0616,0.1691,-0.1164,66,4.22,21.22,-5.24,357.87,-16.38,1.86,5,38.368,12.922314,77.68371,829.5,NaN,,23.618,,0 / 31,1001,2018-11-06 12:00:10:512
-1.0558,3.2298,6.7277,-0.401,2.8036,9.3888,-0.6821,0.6169,-2.0226,0.0286,0.0797,-0.0216,66,2.57,21.38,-6.59,353.06,-16.61,2.45,5,38.368,12.922314,77.68371,829.5,NaN,,23.618,,0 / 31,1024,2018-11-06 12:00:10:535
-1.0558,3.2298,6.7277,-0.401,2.8036,9.3888,-0.6821,0.6169,-2.0226,0.0286,0.0797,-0.0216,66,2.57,21.38,-6.59,353.06,-16.61,2.45,5,38.368,12.922314,77.68371,829.5,NaN,,23.618,,0 / 31,1025,2018-11-06 12:00:10:536
-1.0558,3.2298,6.7277,-0.401,2.8036,9.3888,-0.6821,0.6169,-2.0226,0.0286,0.0797,-0.0216,66,2.57,21.38,-6.59,353.06,-16.61,2.45,5,38.368,12.922314,77.68371,829.5,NaN,,23.618,,0 / 31,1030,2018-11-06 12:00:10:541
-0.7374,3.1747,7.446,-0.3906,2.8104,9.3872,-0.3736,0.5572,-1.2968,0.0062,-0.1622,0.0402,67,2.12,22.13,-5.84,353.06,-16.61,2.45,5,38.368,12.922314,77.68371,829.5,NaN,,23.618,,0 / 31,1041,2018-11-06 12:00:10:552
-0.5219,3.1699,7.422,-0.3484,2.815,9.3875,-0.1976,0.5493,-1.3172,0.003,-0.3571,0.0774,67,2.42,19.73,-3.89,353.06,-16.61,2.45,5,38.368,12.922314,77.68371,829.5,NaN,,23.618,,0 / 31,1051,2018-11-06 12:00:10:562
-0.5219,3.1699,7.422,-0.3484,2.815,9.3875,-0.1976,0.5493,-1.3172,0.003,-0.3571,0.0774,67,2.42,19.73,-3.89,353.06,-16.61,2.45,5,38.368,12.922314,77.68371,829.5,NaN,,23.618,,0 / 31,1061,2018-11-06 12:00:10:572
-0.3735,3.3255,7.4292,-0.2835,2.8171,9.389,-0.1097,0.7042,-1.3076,-0.0289,-0.4775,0.1073,67,0.77,21.38,-4.34,357.63,-16.69,1.73,5,38.368,12.922314,77.68371,829.5,NaN,,23.618,,0 / 31,1071,2018-11-06 12:00:10:582
-0.3735,3.3255,7.4292,-0.2835,2.8171,9.389,-0.1097,0.7042,-1.3076,-0.0289,-0.4775,0.1073,67,0.77,21.38,-4.34,357.63,-16.69,1.73,5,38.368,12.922314,77.68371,829.5,NaN,,23.618,,0 / 31,1081,2018-11-06 12:00:10:592
-0.1341,3.2633,7.7907,-0.1831,2.812,9.393,0.0362,0.6479,-0.9457,-0.0673,-0.5158,0.1073,67,2.42,21.22,-4.19,357.63,-16.69,1.73,5,38.368,12.922314,77.68371,829.5,NaN,,23.618,,0 / 31,1091,2018-11-06 12:00:10:602
-0.1341,3.2633,7.7907,-0.1831,2.812,9.393,0.0362,0.6479,-0.9457,-0.0673,-0.5158,0.1073,67,2.42,21.22,-4.19,357.63,-16.69,1.73,5,38.368,12.922314,77.68371,829.5,NaN,,23.618,,0 / 31,1100,2018-11-06 12:00:10:611
0.0646,3.3447,8.1355,-0.1146,2.8059,9.396,0.1712,0.7354,-0.6018,-0.0694,-0.4359,0.0508,67,2.42,21.22,-4.19,357.63,-16.69,1.73,5,38.368,12.922314,77.68371,829.5,NaN,,23.618,,0 / 31,1111,2018-11-06 12:00:10:622
0.1125,3.3974,8.6072,-0.0665,2.7995,9.3983,0.1743,0.7942,-0.1322,-0.0705,-0.2889,-0.0163,67,2.12,21.08,-4.04,354.7,-16.59,0.41,5,38.368,12.922314,77.68371,829.5,NaN,,23.618,,0 / 31,1121,2018-11-06 12:00:10:632
0.1125,3.3974,8.6072,-0.0665,2.7995,9.3983,0.1743,0.7942,-0.1322,-0.0705,-0.2889,-0.0163,67,2.12,21.08,-4.04,354.7,-16.59,0.41,5,38.368,12.922314,77.68371,829.5,NaN,,23.618,,0 / 31,1130,2018-11-06 12:00:10:641
0.012,3.3232,9.3829,-0.0409,2.7859,9.4025,0.05,0.7319,0.6371,-0.1163,-0.0897,-0.0909,67,3.17,20.78,-4.19,354.7,-16.59,0.41,5,38.065,12.922314,77.68371,829.5,NaN,,23.618,,0 / 31,1141,2018-11-06 12:00:10:652
0.012,3.3232,9.3829,-0.0409,2.7859,9.4025,0.05,0.7319,0.6371,-0.1163,-0.0897,-0.0909,67,3.17,20.78,-4.19,354.7,-16.59,0.41,5,38.065,12.922314,77.68371,829.5,NaN,,23.618,,0 / 31,1150,2018-11-06 12:00:10:661
-0.0215,3.0646,10.2544,-0.0375,2.7621,9.4096,0.0134,0.4941,1.4974,-0.2089,-0.0599,-0.158,67,3.47,22.28,-4.64,354.7,-16.59,0.41,5,38.065,12.922314,77.68371,829.5,NaN,,23.618,,0 / 31,1160,2018-11-06 12:00:10:671
-0.4836,2.4828,11.4586,-0.034,2.7099,9.4247,-0.452,-0.0422,2.6769,-0.2931,-0.1036,-0.2656,67,3.47,22.28,-4.64,354.7,-16.59,0.41,5,38.065,12.922314,77.68371,829.5,NaN,,23.618,,0 / 31,1171,2018-11-06 12:00:10:682
-0.4836,2.4828,11.4586,-0.034,2.7099,9.4247,-0.452,-0.0422,2.6769,-0.2931,-0.1036,-0.2656,67,1.22,22.58,-4.19,357.57,-16.04,0.21,5,38.065,12.922314,77.68371,829.5,NaN,,23.618,,0 / 31,1181,2018-11-06 12:00:10:692
-0.7063,2.3535,12.2128,-0.0388,2.6634,9.438,-0.6701,-0.1312,3.408,-0.3102,-0.0503,-0.3593,65,1.22,22.58,-4.19,357.57,-16.04,0.21,5,38.065,12.922314,77.68371,829.5,NaN,,23.618,,0 / 31,1191,2018-11-06 12:00:10:702
-0.7063,2.3535,12.2128,-0.0388,2.6634,9.438,-0.6701,-0.1312,3.408,-0.3102,-0.0503,-0.3593,65,1.22,22.58,-4.19,357.57,-16.04,0.21,5,38.065,12.922314,77.68371,829.5,NaN,,23.618,,0 / 31,1201,2018-11-06 12:00:10:712
-1.1923,2.8443,12.9287,-0.0612,2.6193,9.4502,-1.0082,0.2821,3.9818,-0.2718,0.0669,-0.4104,65,1.52,22.13,-2.69,357.57,-16.04,0.21,5,38.065,12.922314,77.68371,829.5,NaN,,23.618,,0 / 31,1210,2018-11-06 12:00:10:721
-0.9314,3.1963,12.9335,-0.113,2.5748,9.4619,-0.8256,0.7851,4.0729,-0.2026,0.1808,-0.2997,65,1.52,23.48,-2.99,355.12,-15.22,0.68,5,38.065,12.922314,77.68371,829.5,NaN,,23.618,,0 / 31,1220,2018-11-06 12:00:10:731
-0.9314,3.1963,12.9335,-0.113,2.5748,9.4619,-0.8256,0.7851,4.0729,-0.2026,0.1808,-0.2997,65,1.52,23.48,-2.99,355.12,-15.22,0.68,5,38.065,12.922314,77.68371,829.5,NaN,,23.618,,0 / 31,1231,2018-11-06 12:00:10:742
-0.2538,3.2753,12.7228,-0.1454,2.5365,9.4718,0.1532,0.8685,3.7548,-0.1994,0.0977,-0.1921,65,1.67,22.28,-3.14,355.12,-15.22,0.68,5,38.065,12.922314,77.68371,829.5,NaN,,23.618,,0 / 31,1241,2018-11-06 12:00:10:752
-0.2538,3.2753,12.7228,-0.1454,2.5365,9.4718,0.1532,0.8685,3.7548,-0.1994,0.0977,-0.1921,65,1.67,22.28,-3.14,355.12,-15.22,0.68,5,38.065,12.922314,77.68371,829.5,NaN,,23.618,,0 / 31,1251,2018-11-06 12:00:10:762
0.8475,3.055,12.232,-0.1331,2.5096,9.4792,0.9726,0.6964,3.3231,-0.1749,-0.1814,-0.1282,65,1.97,23.63,-1.79,355.12,-15.22,0.68,5,38.065,12.922314,77.68371,829.5,NaN,,23.618,,0 / 31,1261,2018-11-06 12:00:10:772
1.6041,2.5809,11.4586,-0.0844,2.4905,9.4848,1.6835,0.2376,2.5344,-0.0939,-0.4253,-0.1825,65,1.97,23.63,-1.79,355.12,-15.22,0.68,5,38.065,12.922314,77.68371,829.5,NaN,,23.618,,0 / 31,1271,2018-11-06 12:00:10:782
1.6041,2.5809,11.4586,-0.0844,2.4905,9.4848,1.6835,0.2376,2.5344,-0.0939,-0.4253,-0.1825,65,0.32,21.68,-1.49,0.02,-14.71,0.51,5,38.065,12.922314,77.68371,829.5,NaN,,23.618,,0 / 31,1281,2018-11-06 12:00:10:792
1.743,2.0686,10.4148,-0.0152,2.488,9.4858,1.7573,-0.274,1.4832,0.0457,-0.5393,-0.3391,65,0.32,21.68,-1.49,0.02,-14.71,0.51,5,38.065,12.922314,77.68371,829.5,NaN,,23.618,,0 / 31,1291,2018-11-06 12:00:10:802
1.743,2.0686,10.4148,-0.0152,2.488,9.4858,1.7573,-0.274,1.4832,0.0457,-0.5393,-0.3391,65,0.32,21.68,-1.49,0.02,-14.71,0.51,5,38.065,12.922314,77.68371,829.5,NaN,,23.618,,0 / 31,1301,2018-11-06 12:00:10:812
1.3168,1.6257,9.2488,0.0509,2.5119,9.4794,1.2688,-0.7401,0.3208,0.2044,-0.3443,-0.6235,65,0.92,23.33,-1.79,0.02,-14.71,0.51,5,38.065,12.922314,77.68371,829.5,NaN,,23.618,,0 / 31,1310,2018-11-06 12:00:10:821
0.826,1.5227,8.8035,0.0442,2.5459,9.4703,0.7844,-0.8749,-0.1152,0.2853,-0.0088,-0.8142,65,0.62,22.58,-2.84,357.47,-15.05,-0.27,5,38.065,12.922314,77.68371,829.5,NaN,,23.618,,0 / 31,1321,2018-11-06 12:00:10:832
0.826,1.5227,8.8035,0.0442,2.5459,9.4703,0.7844,-0.8749,-0.1152,0.2853,-0.0088,-0.8142,65,0.62,22.58,-2.84,357.47,-15.05,-0.27,5,38.065,12.922314,77.68371,829.5,NaN,,23.618,,0 / 31,1330,2018-11-06 12:00:10:841
-0.4477,1.6855,8.8394,-0.0514,2.5991,9.4558,-0.3993,-0.7617,-0.0639,0.3035,0.4173,-0.942,64,-1.03,22.72,-2.99,357.47,-15.05,-0.27,5,38.065,12.922314,77.68371,829.5,NaN,,23.618,,0 / 31,1340,2018-11-06 12:00:10:851
-0.4477,1.6855,8.8394,-0.0514,2.5991,9.4558,-0.3993,-0.7617,-0.0639,0.3035,0.4173,-0.942,64,-1.03,22.72,-2.99,357.47,-15.05,-0.27,5,38.065,12.922314,77.68371,829.5,NaN,,23.618,,0 / 31,1350,2018-11-06 12:00:10:861
-1.561,1.8076,9.2105,-0.165,2.6319,9.4454,-1.4056,-0.6705,0.3169,0.2363,0.5835,-0.8376,64,1.22,24.38,-2.09,357.66,-15.57,1,5,38.065,12.922314,77.68371,829.5,NaN,,23.618,,0 / 31,1362,2018-11-06 12:00:10:873
-2.1572,2.0159,9.5337,-0.2846,2.6478,9.4381,-1.8557,-0.5279,0.593,0.0329,0.6038,-0.4296,64,1.22,24.38,-2.09,357.66,-15.57,1,5,38.065,12.922314,77.68371,829.5,NaN,,23.618,,0 / 31,1370,2018-11-06 12:00:10:881
-2.1572,2.0159,9.5337,-0.2846,2.6478,9.4381,-1.8557,-0.5279,0.593,0.0329,0.6038,-0.4296,64,0.02,22.43,-3.29,357.66,-15.57,1,5,38.065,12.922314,77.68371,829.5,NaN,,23.618,,0 / 31,1380,2018-11-06 12:00:10:891
-1.6879,2.1165,9.9096,-0.4051,2.6295,9.4388,-1.3063,-0.3608,1.0173,-0.1759,0.4536,-0.076,64,0.02,22.43,-3.29,357.66,-15.57,1,5,38.065,12.922314,77.68371,829.5,NaN,,23.618,,0 / 31,1391,2018-11-06 12:00:10:902
-1.0127,1.9441,10.2089,-0.4484,2.5871,9.4486,-0.5902,-0.4942,1.3035,-0.3357,0.2512,0.2149,64,0.62,25.13,-2.84,358.03,-15.3,2.72,5,38.065,12.922314,77.68371,829.5,NaN,,23.618,,0 / 31,1401,2018-11-06 12:00:10:912
-1.0127,1.9441,10.2089,-0.4484,2.5871,9.4486,-0.5902,-0.4942,1.3035,-0.3357,0.2512,0.2149,64,0.62,25.13,-2.84,358.03,-15.3,2.72,5,38.065,12.922314,77.68371,829.5,NaN,,23.618,,0 / 31,1411,2018-11-06 12:00:10:922
-0.012,1.6233,10.3286,-0.4411,2.5133,9.4689,0.404,-0.747,1.3984,-0.39,-0.0514,0.4386,64,0.17,23.63,-2.84,358.03,-15.3,2.72,5,38.065,12.922314,77.68371,829.5,NaN,,23.618,,0 / 31,1421,2018-11-06 12:00:10:932
-0.012,1.6233,10.3286,-0.4411,2.5133,9.4689,0.404,-0.747,1.3984,-0.39,-0.0514,0.4386,64,0.17,23.63,-2.84,358.03,-15.3,2.72,5,38.065,12.922314,77.68371,829.5,NaN,,23.618,,0 / 31,1430,2018-11-06 12:00:10:941
0.735,1.336,9.924,-0.3935,2.4631,9.4841,1.1063,-0.9878,0.9763,-0.3144,-0.2591,0.4514,66,1.52,23.48,-2.69,358.03,-15.3,2.72,5,38.065,12.922314,77.68371,829.5,NaN,,23.618,,0 / 31,1441,2018-11-06 12:00:10:952
0.735,1.336,9.924,-0.3935,2.4631,9.4841,1.1063,-0.9878,0.9763,-0.3144,-0.2591,0.4514,66,1.52,23.48,-2.69,358.03,-15.3,2.72,5,38.065,12.922314,77.68371,829.5,NaN,,23.618,,0 / 31,1451,2018-11-06 12:00:10:962
1.2761,1.2426,9.2488,-0.3258,2.4309,9.495,1.5835,-1.051,0.2902,-0.1557,-0.3784,0.3214,66,0.17,24.83,-3.59,0.31,-14.35,1.96,5,36.602,12.922314,77.68371,829.5,NaN,,23.618,,0 / 31,1461,2018-11-06 12:00:10:972
1.3479,1.2833,8.0038,-0.2409,2.4297,9.4978,1.5751,-1.0082,-0.9538,0.1106,-0.3411,0.0402,66,0.17,24.83,-3.59,0.31,-14.35,1.96,5,36.602,12.922314,77.68371,829.5,NaN,,23.618,,0 / 31,1471,2018-11-06 12:00:10:982
1.3479,1.2833,8.0038,-0.2409,2.4297,9.4978,1.5751,-1.0082,-0.9538,0.1106,-0.3411,0.0402,66,-0.58,22.58,-2.09,0.31,-14.35,1.96,5,36.602,12.922314,77.68371,829.5,NaN,,23.618,,0 / 31,1480,2018-11-06 12:00:10:991
0.996,1.4892,7.0892,-0.199,2.4577,9.4916,1.1835,-0.8271,-1.8562,0.2598,-0.2666,-0.1569,66,-0.58,22.58,-2.09,0.31,-14.35,1.96,5,36.602,12.922314,77.68371,829.5,NaN,,23.618,,0 / 31,1491,2018-11-06 12:00:11:002
0.996,1.4892,7.0892,-0.199,2.4577,9.4916,1.1835,-0.8271,-1.8562,0.2598,-0.2666,-0.1569,66,-0.58,22.58,-2.09,0.31,-14.35,1.96,5,36.602,12.922314,77.68371,829.5,NaN,,23.618,,0 / 31,1501,2018-11-06 12:00:11:012
0.5674,1.7406,6.0478,-0.1707,2.5187,9.4761,0.7281,-0.6299,-2.8705,0.3663,-0.1536,-0.3284,66,0.77,24.23,-2.99,357.76,-14.51,1.2,5,36.602,12.922314,77.68371,829.5,NaN,,23.618,,0 / 31,1511,2018-11-06 12:00:11:022
0.3615,1.9585,5.2696,-0.1704,2.5718,9.4619,0.5216,-0.4586,-3.6229,0.3737,-0.0514,-0.3732,66,0.32,25.28,-2.24,357.76,-14.51,1.2,5,36.602,12.922314,77.68371,829.5,NaN,,23.618,,0 / 31,1521,2018-11-06 12:00:11:032
0.3615,1.9585,5.2696,-0.1704,2.5718,9.4619,0.5216,-0.4586,-3.6229,0.3737,-0.0514,-0.3732,66,0.32,25.28,-2.24,357.76,-14.51,1.2,5,36.602,12.922314,77.68371,829.5,NaN,,23.618,,0 / 31,1530,2018-11-06 12:00:11:041
0.1628,2.32,4.7118,-0.1844,2.6183,9.4489,0.3359,-0.1368,-4.1543,0.2747,0.0402,-0.3519,68,-0.13,24.83,-2.39,357.76,-14.51,1.2,5,36.602,12.922314,77.68371,829.5,NaN,,23.618,,0 / 31,1542,2018-11-06 12:00:11:053
0.1628,2.32,4.7118,-0.1844,2.6183,9.4489,0.3359,-0.1368,-4.1543,0.2747,0.0402,-0.3519,68,-0.13,24.83,-2.39,357.76,-14.51,1.2,5,36.602,12.922314,77.68371,829.5,NaN,,23.618,,0 / 31,1551,2018-11-06 12:00:11:062
-0.0359,2.715,5.217,-0.2209,2.6473,9.44,0.1709,0.2361,-3.6226,0.0446,0.1574,-0.2762,68,0.02,25.28,-2.69,0.16,-15.66,1.34,5,36.602,12.922314,77.68371,829.5,NaN,,23.618,,0 / 31,1560,2018-11-06 12:00:11:071
-0.1987,2.8683,6.3231,-0.2578,2.6466,9.4393,0.0424,0.3927,-2.506,-0.0555,0.2128,-0.2208,68,0.02,25.28,-2.69,0.16,-15.66,1.34,5,36.602,12.922314,77.68371,829.5,NaN,,23.618,,0 / 31,1571,2018-11-06 12:00:11:082
-0.1987,2.8683,6.3231,-0.2578,2.6466,9.4393,0.0424,0.3927,-2.506,-0.0555,0.2128,-0.2208,68,-0.13,24.38,-3.59,0.16,-15.66,1.34,5,36.602,12.922314,77.68371,829.5,NaN,,23.618,,0 / 31,1581,2018-11-06 12:00:11:092
-0.6057,3.2417,7.5729,-0.3054,2.6381,9.4402,-0.3203,0.7761,-1.2501,-0.0683,0.1862,-0.125,68,-0.13,24.38,-3.59,0.16,-15.66,1.34,5,36.602,12.922314,77.68371,829.5,NaN,,23.618,,0 / 31,1590,2018-11-06 12:00:11:101
-0.6057,3.2417,7.5729,-0.3054,2.6381,9.4402,-0.3203,0.7761,-1.2501,-0.0683,0.1862,-0.125,68,-0.13,24.38,-3.59,0.16,-15.66,1.34,5,36.602,12.922314,77.68371,829.5,NaN,,23.618,,0 / 31,1600,2018-11-06 12:00:11:111
-0.8356,3.371,8.0565,-0.3262,2.6344,9.4406,-0.5307,0.9096,-0.7645,-0.0502,0.0871,0.0061,68,-0.58,26.17,-2.84,2.44,-15.58,1.98,5,36.602,12.922314,77.68371,829.5,NaN,,23.618,,0 / 31,1610,2018-11-06 12:00:11:121
-0.8356,3.371,8.0565,-0.3262,2.6344,9.4406,-0.5307,0.9096,-0.7645,-0.0502,0.0871,0.0061,68,-0.58,26.17,-2.84,2.44,-15.58,1.98,5,36.602,12.922314,77.68371,829.5,NaN,,23.618,,0 / 31,1621,2018-11-06 12:00:11:132
-0.7973,3.3327,8.3845,-0.3244,2.632,9.4413,-0.4942,0.8738,-0.4362,-0.0502,-0.0397,0.1701,68,0.62,25.13,-2.39,2.44,-15.58,1.98,5,36.602,12.922314,77.68371,829.5,NaN,,23.618,,0 / 31,1631,2018-11-06 12:00:11:142
-0.2945,2.9401,9.0405,-0.2591,2.6294,9.444,-0.0523,0.4831,0.2156,-0.0236,-0.1899,0.3917,68,0.62,25.13,-2.39,2.44,-15.58,1.98,5,36.602,12.922314,77.68371,829.5,NaN,,23.618,,0 / 31,1641,2018-11-06 12:00:11:152
-0.2945,2.9401,9.0405,-0.2591,2.6294,9.444,-0.0523,0.4831,0.2156,-0.0151,-0.2453,0.4375,68,0.62,25.13,-2.39,2.44,-15.58,1.98,5,36.602,12.922314,77.68371,829.5,NaN,,23.618,,0 / 31,1651,2018-11-06 12:00:11:162
0.0862,2.6935,9.1004,-0.2052,2.6294,9.4454,0.278,0.2361,0.2729,-0.0289,-0.2612,0.4375,68,1.22,25.13,-2.09,357.78,-15.55,1.24,5,36.602,12.922314,77.68371,829.5,NaN,,23.618,,0 / 31,1661,2018-11-06 12:00:11:172
0.3136,2.5139,9.2392,-0.1557,2.6259,9.4473,0.4591,0.0594,0.4088,-0.0385,-0.1867,0.4055,68,1.22,25.13,-2.09,357.78,-15.55,1.24,5,36.602,12.922314,77.68371,829.5,NaN,,23.618,,0 / 31,1670,2018-11-06 12:00:11:181
0.4501,2.4493,9.426,-0.1357,2.6227,9.4485,0.5769,-0.0026,0.5932,-0.0364,-0.061,0.3608,68,0.62,24.83,-2.09,357.78,-15.55,1.24,5,36.602,12.922314,77.68371,829.5,NaN,,23.618,,0 / 31,1681,2018-11-06 12:00:11:192
0.4501,2.4493,9.426,-0.1357,2.6227,9.4485,0.5769,-0.0026,0.5932,-0.0364,-0.061,0.3608,69,0.62,24.83,-2.09,357.78,-15.55,1.24,5,36.602,12.922314,77.68371,829.5,NaN,,23.618,,0 / 31,1690,2018-11-06 12:00:11:201
0.5148,2.3176,9.8761,-0.1341,2.6193,9.4494,0.6402,-0.1319,1.0393,-0.0119,0.1713,0.2873,69,1.22,24.83,-2.09,357.74,-15.49,0.81,5,36.602,12.922314,77.68371,829.5,NaN,,23.618,,0 / 31,1700,2018-11-06 12:00:11:211
0.5148,2.3176,9.8761,-0.1341,2.6193,9.4494,0.6402,-0.1319,1.0393,-0.0119,0.1713,0.2873,69,1.22,24.83,-2.09,357.74,-15.49,0.81,5,36.602,12.922314,77.68371,829.5,NaN,,23.618,,0 / 31,1711,2018-11-06 12:00:11:222
0.3376,1.9848,10.6063,-0.178,2.6168,9.4494,0.5042,-0.4641,1.7631,0.0148,0.3694,0.1509,69,0.02,24.53,-3.29,357.74,-15.49,0.81,5,36.602,12.922314,77.68371,829.5,NaN,,23.618,,0 / 31,1721,2018-11-06 12:00:11:232
-0.4669,1.6161,10.8074,-0.2337,2.6134,9.4491,-0.248,-0.8313,1.9585,-0.0065,0.4578,0.0764,69,0.02,24.53,-3.29,357.74,-15.49,0.81,5,36.602,12.922314,77.68371,829.5,NaN,,23.618,,0 / 31,1731,2018-11-06 12:00:11:242
-0.4669,1.6161,10.8074,-0.2337,2.6134,9.4491,-0.248,-0.8313,1.9585,-0.1589,0.5217,0.0785,69,1.52,25.28,-2.24,355.48,-15.46,1.42,5,36.602,12.922314,77.68371,829.5,NaN,,23.618,,0 / 31,1741,2018-11-06 12:00:11:252
-1.336,1.6544,11.3318,-0.3283,2.5823,9.4548,-1.0282,-0.7665,2.468,-0.1589,0.5217,0.0785,69,1.52,25.28,-2.24,355.48,-15.46,1.42,5,36.602,12.922314,77.68371,829.5,NaN,,23.618,,0 / 31,1750,2018-11-06 12:00:11:261
-1.336,1.6544,11.3318,-0.3283,2.5823,9.4548,-1.0282,-0.7665,2.468,-0.2888,0.4717,0.0934,69,0.17,26.93,-1.79,355.48,-15.46,1.42,5,36.602,12.922314,77.68371,829.5,NaN,,23.618,,0 / 31,1761,2018-11-06 12:00:11:272
-1.8363,1.6783,11.7986,-0.3926,2.5288,9.4669,-1.4679,-0.6949,2.9144,-0.4071,0.4461,0.1275,69,0.17,26.93,-1.79,355.48,-15.46,1.42,5,36.602,12.922314,77.68371,829.5,NaN,,23.618,,0 / 31,1770,2018-11-06 12:00:11:281
-1.8363,1.6783,11.7986,-0.3926,2.5288,9.4669,-1.4679,-0.6949,2.9144,-0.4071,0.4461,0.1275,69,0.17,26.93,-1.79,355.48,-15.46,1.42,5,36.602,12.922314,77.68371,829.5,NaN,,23.618,,0 / 31,1781,2018-11-06 12:00:11:292
-1.6783,2.2122,12.2751,-0.4572,2.4565,9.483,-1.2487,-0.096,3.3645,-0.5296,0.4951,0.2319,69,1.67,26.17,-0.74,355.59,-14.94,2.37,5,39.086,12.922314,77.68371,829.5,NaN,,23.618,,0 / 31,1791,2018-11-06 12:00:11:302
-0.1987,3.4908,13.2352,-0.5386,2.356,9.5042,0.3085,1.2722,4.2852,-0.5264,0.5036,0.3629,69,2.12,26.78,-0.89,355.59,-14.94,2.37,5,39.086,12.922314,77.68371,829.5,NaN,,23.618,,0 / 31,1801,2018-11-06 12:00:11:312
-0.1987,3.4908,13.2352,-0.5386,2.356,9.5042,0.3085,1.2722,4.2852,-0.5264,0.5036,0.3629,69,2.12,26.78,-0.89,355.59,-14.94,2.37,5,39.086,12.922314,77.68371,829.5,NaN,,23.618,,0 / 31,1810,2018-11-06 12:00:11:321
0.4764,3.5985,13.5512,-0.5742,2.3033,9.515,1.0182,1.4254,4.5739,-0.3346,0.298,0.4183,69,2.87,27.38,0.16,355.59,-14.94,2.37,5,39.086,12.922314,77.68371,829.5,NaN,,23.618,,0 / 31,1820,2018-11-06 12:00:11:331
1.0104,3.0191,12.6103,-0.5498,2.2866,9.5205,1.5302,0.8569,3.6079,-0.0737,-0.0471,0.396,69,2.87,27.38,0.16,355.59,-14.94,2.37,5,39.086,12.922314,77.68371,829.5,NaN,,23.618,,0 / 31,1831,2018-11-06 12:00:11:342
1.0104,3.0191,12.6103,-0.5498,2.2866,9.5205,1.5302,0.8569,3.6079,0.0979,-0.2719,0.2948,72,1.97,26.93,0.46,355.66,-13.48,3.31,5,39.086,12.922314,77.68371,829.5,NaN,,23.618,,0 / 31,1841,2018-11-06 12:00:11:352
0.5243,2.0518,11.2073,-0.4885,2.3115,9.5178,0.9868,-0.1362,2.1979,0.2523,-0.4061,0.1478,72,1.97,26.93,0.46,355.66,-13.48,3.31,5,39.086,12.922314,77.68371,829.5,NaN,,23.618,,0 / 31,1851,2018-11-06 12:00:11:362
0.5243,2.0518,11.2073,-0.4885,2.3115,9.5178,0.9868,-0.1362,2.1979,0.2523,-0.4061,0.1478,72,1.82,26.78,-0.89,355.66,-13.48,3.31,5,39.086,12.922314,77.68371,829.5,NaN,,23.618,,0 / 31,1861,2018-11-06 12:00:11:372
-0.2562,1.5012,9.7085,-0.4293,2.3598,9.5088,0.1504,-0.7334,0.7041,0.4132,-0.3827,-0.0802,72,1.82,26.78,-0.89,355.66,-13.48,3.31,5,39.086,12.922314,77.68371,829.5,NaN,,23.618,,0 / 31,1871,2018-11-06 12:00:11:382
-0.2562,1.5012,9.7085,-0.4293,2.3598,9.5088,0.1504,-0.7334,0.7041,0.4132,-0.3827,-0.0802,72,1.82,26.78,-0.89,355.66,-13.48,3.31,5,39.086,12.922314,77.68371,829.5,NaN,,23.618,,0 / 31,1881,2018-11-06 12:00:11:392
-1.5107,1.3192,8.4827,-0.4111,2.4438,9.4884,-1.1215,-0.9946,-0.501,0.5144,-0.0152,-0.3178,72,2.12,27.08,0.16,355.64,-13.92,2.59,5,39.086,12.922314,77.68371,829.5,NaN,,23.618,,0 / 31,1890,2018-11-06 12:00:11:401
-2.4014,1.403,7.8266,-0.461,2.5099,9.4688,-1.9651,-0.9724,-1.1345,0.4973,0.3342,-0.305,72,1.07,26.33,0.16,355.64,-13.92,2.59,5,39.086,12.922314,77.68371,829.5,NaN,,23.618,,0 / 31,1901,2018-11-06 12:00:11:412
-2.4014,1.403,7.8266,-0.461,2.5099,9.4688,-1.9651,-0.9724,-1.1345,0.4973,0.3342,-0.305,72,1.07,26.33,0.16,355.64,-13.92,2.59,5,39.086,12.922314,77.68371,829.5,NaN,,23.618,,0 / 31,1911,2018-11-06 12:00:11:422
-2.66,1.8459,7.6662,-0.5749,2.5804,9.4436,-2.1163,-0.5944,-1.2646,0.3173,0.5643,-0.0515,72,1.07,26.33,-1.19,355.64,-13.92,2.59,5,39.086,12.922314,77.68371,829.5,NaN,,23.618,,0 / 31,1920,2018-11-06 12:00:11:431
-2.66,1.8459,7.6662,-0.5749,2.5804,9.4436,-2.1163,-0.5944,-1.2646,0.3173,0.5643,-0.0515,72,1.07,26.33,-1.19,355.64,-13.92,2.59,5,39.086,12.922314,77.68371,829.5,NaN,,23.618,,0 / 31,1930,2018-11-06 12:00:11:441
-2.3056,2.0207,8.3246,-0.6561,2.6084,9.4306,-1.6853,-0.4453,-0.591,0.1501,0.5388,0.1786,76,1.52,26.78,-1.49,355.82,-15.43,3.98,5,39.086,12.922314,77.68371,829.5,NaN,,23.618,,0 / 31,1941,2018-11-06 12:00:11:452
-1.9561,2.0351,8.6886,-0.7073,2.6212,9.4234,-1.2875,-0.4427,-0.2191,0.0467,0.3374,0.3864,76,1.52,26.78,-1.49,355.82,-15.43,3.98,5,39.086,12.922314,77.68371,829.5,NaN,,23.618,,0 / 31,1951,2018-11-06 12:00:11:462
-1.9561,2.0351,8.6886,-0.7073,2.6212,9.4234,-1.2875,-0.4427,-0.2191,0.0467,0.3374,0.3864,76,1.52,27.38,-0.44,355.82,-15.43,3.98,5,39.086,12.922314,77.68371,829.5,NaN,,23.618,,0 / 31,1961,2018-11-06 12:00:11:472
-1.4964,1.9321,8.6838,-0.7032,2.6263,9.4222,-0.8317,-0.5502,-0.2218,-0.0151,-0.0652,0.5984,76,1.52,27.38,-0.44,355.82,-15.43,3.98,5,39.086,12.922314,77.68371,829.5,NaN,,23.618,,0 / 31,1971,2018-11-06 12:00:11:482
-1.4964,1.9321,8.6838,-0.7032,2.6263,9.4222,-0.8317,-0.5502,-0.2218,-0.0151,-0.0652,0.5984,76,1.52,27.38,-0.44,355.82,-15.43,3.98,5,39.086,12.922314,77.68371,829.5,NaN,,23.618,,0 / 31,1981,2018-11-06 12:00:11:492
-1.0989,1.6664,8.09,-0.6415,2.6306,9.4254,-0.4928,-0.8193,-0.816,0.0084,-0.3688,0.7027,76,2.57,29.18,-1.19,354.09,-15.56,3.89,5,39.086,12.922314,77.68371,829.5,NaN,,23.618,,0 / 31,1991,2018-11-06 12:00:11:502
-0.1197,1.4269,6.8331,-0.5071,2.6455,9.4294,0.3589,-1.0704,-2.0681,0.0723,-0.584,0.7507,76,2.72,28.28,-2.39,354.09,-15.56,3.89,5,39.086,12.922314,77.68371,829.5,NaN,,23.618,,0 / 31,2001,2018-11-06 12:00:11:512
-0.1197,1.4269,6.8331,-0.5071,2.6455,9.4294,0.3589,-1.0704,-2.0681,0.0723,-0.584,0.7507,76,2.72,28.28,-2.39,354.09,-15.56,3.89,5,39.086,12.922314,77.68371,829.5,NaN,,23.618,,0 / 31,2011,2018-11-06 12:00:11:522
0.5986,1.2306,5.8371,-0.3913,2.6628,9.4301,0.9675,-1.28,-3.0539,0.1181,-0.6234,0.6655,76,4.67,29.18,-0.89,350.05,-15.76,2.38,5,39.086,12.922314,77.68371,829.5,NaN,,23.618,,0 / 31,2020,2018-11-06 12:00:11:531
0.5986,1.2306,5.8371,-0.3913,2.6628,9.4301,0.9675,-1.28,-3.0539,0.1181,-0.6234,0.6655,76,4.67,29.18,-0.89,350.05,-15.76,2.38,5,39.086,12.922314,77.68371,829.5,NaN,,23.618,,0 / 31,2031,2018-11-06 12:00:11:542
1.0343,1.2067,5.0135,-0.2821,2.6836,9.4281,1.2998,-1.3195,-3.8617,0.1447,-0.4381,0.2681,76,4.97,28.73,-0.29,350.05,-15.76,2.38,5,39.086,12.922314,77.68371,829.5,NaN,,23.618,,0 / 31,2041,2018-11-06 12:00:11:552
1.2162,1.5682,4.525,-0.1735,2.712,9.4226,1.3792,-0.9786,-4.3237,0.1447,-0.4381,0.2681,76,4.97,28.73,-0.29,350.05,-15.76,2.38,5,39.086,12.922314,77.68371,829.5,NaN,,23.618,,0 / 31,2051,2018-11-06 12:00:11:562
1.2162,1.5682,4.525,-0.1735,2.712,9.4226,1.3792,-0.9786,-4.3237,0.1501,-0.2538,0.0412,76,4.52,27.98,0.01,349.48,-16.05,1.05,5,39.086,12.922314,77.68371,829.5,NaN,,23.618,,0 / 31,2060,2018-11-06 12:00:11:571
1.008,1.9537,4.6376,-0.1321,2.7351,9.4166,1.1318,-0.6103,-4.1899,0.1586,-0.1781,-0.0248,76,4.52,27.98,0.01,349.48,-16.05,1.05,5,39.086,12.922314,77.68371,829.5,NaN,,23.618,,0 / 31,2070,2018-11-06 12:00:11:581
1.008,1.9537,4.6376,-0.1321,2.7351,9.4166,1.1318,-0.6103,-4.1899,0.1586,-0.1781,-0.0248,76,4.52,27.98,0.01,349.48,-16.05,1.05,5,39.086,12.922314,77.68371,829.5,NaN,,23.618,,0 / 31,2081,2018-11-06 12:00:11:592
0.5387,2.3128,4.9009,-0.1284,2.7633,9.4084,0.6589,-0.2735,-3.9046,0.1969,0.0211,-0.1697,77,6.17,29.18,-0.44,349.48,-16.05,1.05,5,39.086,12.922314,77.68371,829.5,NaN,,23.618,,0 / 31,2090,2018-11-06 12:00:11:601
-0.1628,2.7677,5.1834,-0.1622,2.8054,9.3954,-0.0113,0.1471,-3.5928,0.1916,0.1606,-0.2411,77,4.37,29.18,-1.49,351.93,-16.62,0.99,5,39.086,12.922314,77.68371,829.5,NaN,,23.618,,0 / 31,2100,2018-11-06 12:00:11:611
-0.1628,2.7677,5.1834,-0.1622,2.8054,9.3954,-0.0113,0.1471,-3.5928,0.1916,0.1606,-0.2411,77,4.37,29.18,-1.49,351.93,-16.62,0.99,5,36.946,12.922314,77.68371,829.5,NaN,,23.618,,0 / 31,2111,2018-11-06 12:00:11:622
-0.5004,3.0239,5.3917,-0.1948,2.8293,9.3876,-0.3187,0.3845,-3.3656,0.1085,0.1478,-0.2112,77,5.42,27.83,0.61,351.93,-16.62,0.99,5,36.946,12.922314,77.68371,829.5,NaN,,23.618,,0 / 31,2120,2018-11-06 12:00:11:631
-0.5004,3.0239,5.3917,-0.1948,2.8293,9.3876,-0.3187,0.3845,-3.3656,0.1085,0.1478,-0.2112,77,5.42,27.83,0.61,351.93,-16.62,0.99,5,36.946,12.922314,77.68371,829.5,NaN,,23.618,,0 / 31,2131,2018-11-06 12:00:11:642
-0.735,3.2896,6.1196,-0.2236,2.8373,9.3846,-0.5267,0.6467,-2.6221,-0.0534,0.052,-0.0941,77,5.42,29.93,-1.94,350.42,-16.82,1.37,5,36.946,12.922314,77.68371,829.5,NaN,,23.618,,0 / 31,2141,2018-11-06 12:00:11:652
-0.8428,3.5075,6.7133,-0.2233,2.8281,9.3874,-0.6349,0.8752,-2.0243,-0.1259,-0.0599,0.0295,77,5.42,29.93,-1.94,350.42,-16.82,1.37,5,36.946,12.922314,77.68371,829.5,NaN,,23.618,,0 / 31,2150,2018-11-06 12:00:11:661
-0.8428,3.5075,6.7133,-0.2233,2.8281,9.3874,-0.6349,0.8752,-2.0243,-0.1259,-0.0599,0.0295,77,4.37,32.03,-0.44,350.42,-16.82,1.37,5,36.946,12.922314,77.68371,829.5,NaN,,23.618,,0 / 31,2160,2018-11-06 12:00:11:671
-0.7805,3.7038,7.1108,-0.1936,2.8051,9.3949,-0.5908,1.088,-1.6269,-0.177,-0.1526,0.1627,77,4.37,32.03,-0.44,350.42,-16.82,1.37,5,36.946,12.922314,77.68371,829.5,NaN,,23.618,,0 / 31,2171,2018-11-06 12:00:11:682
-0.7805,3.7038,7.1108,-0.1936,2.8051,9.3949,-0.5908,1.088,-1.6269,-0.177,-0.1526,0.1627,77,4.37,32.03,-0.44,350.42,-16.82,1.37,5,36.946,12.922314,77.68371,829.5,NaN,,23.618,,0 / 31,2180,2018-11-06 12:00:11:691
-0.3735,3.7326,7.9392,-0.1502,2.7818,9.4026,-0.2338,1.1459,-0.8042,-0.2228,-0.2708,0.3193,77,4.67,29.93,-1.19,350.27,-16.48,0.91,5,36.946,12.922314,77.68371,829.5,NaN,,23.618,,0 / 31,2191,2018-11-06 12:00:11:702
0.3041,3.5578,8.5736,-0.09,2.7551,9.4113,0.3878,0.996,-0.1773,-0.2281,-0.3528,0.3619,77,5.87,29.18,-0.14,350.27,-16.48,0.91,5,36.946,12.922314,77.68371,829.5,NaN,,23.618,,0 / 31,2200,2018-11-06 12:00:11:711
0.3041,3.5578,8.5736,-0.09,2.7551,9.4113,0.3878,0.996,-0.1773,-0.2281,-0.3528,0.3619,77,5.87,29.18,-0.14,350.27,-16.48,0.91,5,36.946,12.922314,77.68371,829.5,NaN,,23.618,,0 / 31,2211,2018-11-06 12:00:11:722
1.008,3.3758,9.5265,0.0153,2.7227,9.4211,0.9938,0.8432,0.7631,-0.1706,-0.519,0.283,77,5.27,29.78,-0.74,350.25,-16.12,-0.09,5,36.946,12.922314,77.68371,829.5,NaN,,23.618,,0 / 31,2221,2018-11-06 12:00:11:732
1.008,3.3758,9.5265,0.0153,2.7227,9.4211,0.9938,0.8432,0.7631,-0.1706,-0.519,0.283,77,5.27,29.78,-0.74,350.25,-16.12,-0.09,5,36.946,12.922314,77.68371,829.5,NaN,,23.618,,0 / 31,2231,2018-11-06 12:00:11:742
1.4461,3.4309,9.8809,0.112,2.7092,9.4243,1.3418,0.9095,1.11,-0.079,-0.6426,0.1318,81,6.32,31.58,-0.74,350.25,-16.12,-0.09,5,36.946,12.922314,77.68371,829.5,NaN,,23.618,,0 / 31,2240,2018-11-06 12:00:11:751
1.3982,3.5961,10.1538,0.2385,2.7141,9.4206,1.335,1.0554,1.3624,0.0275,-0.6501,-0.0621,81,6.32,31.58,-0.74,350.25,-16.12,-0.09,5,36.946,12.922314,77.68371,829.5,NaN,,23.618,,0 / 31,2250,2018-11-06 12:00:11:761
1.3982,3.5961,10.1538,0.2385,2.7141,9.4206,1.335,1.0554,1.3624,0.0968,-0.6021,-0.1878,81,5.42,30.68,-1.49,350.5,-16.07,-1.45,5,36.946,12.922314,77.68371,829.5,NaN,,23.618,,0 / 31,2261,2018-11-06 12:00:11:772
0.8547,3.4357,10.1442,0.3095,2.7346,9.4126,0.5663,0.8868,1.3709,0.1501,-0.5158,-0.2879,81,5.42,30.68,-1.49,350.5,-16.07,-1.45,5,36.946,12.922314,77.68371,829.5,NaN,,23.618,,0 / 31,2271,2018-11-06 12:00:11:782
0.8547,3.4357,10.1442,0.3095,2.7346,9.4126,0.5663,0.8868,1.3709,0.1501,-0.5158,-0.2879,81,5.42,30.68,-1.49,350.5,-16.07,-1.45,5,36.946,12.922314,77.68371,829.5,NaN,,23.618,,0 / 31,2280,2018-11-06 12:00:11:791
0.4501,2.7821,10.3022,0.3539,2.7599,9.4036,0.12,0.2079,1.5317,0.1703,-0.3656,-0.37,81,5.12,29.62,-0.44,350.5,-16.07,-1.45,5,36.946,12.922314,77.68371,829.5,NaN,,23.618,,0 / 31,2290,2018-11-06 12:00:11:801
0.4429,1.6712,10.6853,0.3729,2.777,9.3979,0.0949,-0.921,1.9129,0.0329,-0.1622,-0.5191,81,5.42,29.18,0.91,349.77,-16.45,-2.27,5,36.946,12.922314,77.68371,829.5,NaN,,23.618,,0 / 31,2301,2018-11-06 12:00:11:812
0.4429,1.6712,10.6853,0.3729,2.777,9.3979,0.0949,-0.921,1.9129,0.0329,-0.1622,-0.5191,81,5.42,29.18,0.91,349.77,-16.45,-2.27,5,36.946,12.922314,77.68371,829.5,NaN,,23.618,,0 / 31,2311,2018-11-06 12:00:11:822
0.2035,1.3024,11.3365,0.3554,2.7587,9.4039,-0.1285,-1.2747,2.5517,-0.1823,-0.0237,-0.7322,81,3.62,30.98,1.36,349.77,-16.45,-2.27,5,36.946,12.922314,77.68371,829.5,NaN,,23.618,,0 / 31,2320,2018-11-06 12:00:11:831
0.2035,1.3024,11.3365,0.3554,2.7587,9.4039,-0.1285,-1.2747,2.5517,-0.1823,-0.0237,-0.7322,81,3.62,30.98,1.36,349.77,-16.45,-2.27,5,36.946,12.922314,77.68371,829.5,NaN,,23.618,,0 / 31,2330,2018-11-06 12:00:11:841
-0.4477,2.7054,13.6086,0.282,2.6902,9.4262,-0.7116,0.1876,4.7863,-0.4284,0.2277,-0.9133,81,4.07,32.48,1.96,352.57,-15.92,-1.71,5,36.946,12.922314,77.68371,829.5,NaN,,23.618,,0 / 31,2341,2018-11-06 12:00:11:852
-0.4836,3.8331,15.5863,0.1974,2.6405,9.4424,-0.6689,1.3555,6.7264,-0.2931,0.3726,-0.8525,81,4.07,32.48,1.96,352.57,-15.92,-1.71,5,36.946,12.922314,77.68371,829.5,NaN,,23.618,,0 / 31,2351,2018-11-06 12:00:11:862
-0.4836,3.8331,15.5863,0.1974,2.6405,9.4424,-0.6689,1.3555,6.7264,-0.2931,0.3726,-0.8525,81,1.82,32.48,2.41,352.57,-15.92,-1.71,5,36.946,12.922314,77.68371,829.5,NaN,,23.618,,0 / 31,2360,2018-11-06 12:00:11:871
-0.3256,3.5195,15.8353,0.1161,2.6336,9.4457,-0.4349,1.0412,6.9466,0.0957,0.3321,-0.6618,81,1.82,32.48,2.41,352.57,-15.92,-1.71,5,36.946,12.922314,77.68371,829.5,NaN,,23.618,,0 / 31,2370,2018-11-06 12:00:11:881
-0.3256,3.5195,15.8353,0.1161,2.6336,9.4457,-0.4349,1.0412,6.9466,0.0957,0.3321,-0.6618,81,1.82,32.48,2.41,352.57,-15.92,-1.71,5,36.946,12.922314,77.68371,829.5,NaN,,23.618,,0 / 31,2381,2018-11-06 12:00:11:892
0.4046,2.4062,13.1322,0.0659,2.6937,9.4292,0.3424,-0.1358,4.2338,0.4419,-0.0301,-0.468,89,2.57,34.13,1.66,354.69,-15.94,-0.4,5,36.946,12.922314,77.68371,829.5,NaN,,23.618,,0 / 31,2391,2018-11-06 12:00:11:902
0.3974,1.8028,11.1785,0.077,2.7477,9.4135,0.3247,-0.7929,2.2856,0.3993,-0.2612,-0.452,89,1.82,32.03,1.96,354.69,-15.94,-0.4,5,36.946,12.922314,77.68371,829.5,NaN,,23.618,,0 / 31,2401,2018-11-06 12:00:11:912
0.3974,1.8028,11.1785,0.077,2.7477,9.4135,0.3247,-0.7929,2.2856,0.3993,-0.2612,-0.452,89,1.82,32.03,1.96,354.69,-15.94,-0.4,5,36.946,12.922314,77.68371,829.5,NaN,,23.618,,0 / 31,2410,2018-11-06 12:00:11:921
0.182,1.4533,9.8497,0.0984,2.7987,9.3983,0.089,-1.1921,0.9663,0.2662,-0.1654,-0.4467,89,0.32,33.83,0.16,0,-16.58,-0.6,5,36.946,12.922314,77.68371,829.5,NaN,,23.618,,0 / 31,2421,2018-11-06 12:00:11:932
0.182,1.4533,9.8497,0.0984,2.7987,9.3983,0.089,-1.1921,0.9663,0.2662,-0.1654,-0.4467,89,0.32,33.83,0.16,0,-16.58,-0.6,5,36.946,12.922314,77.68371,829.5,NaN,,23.618,,0 / 31,2430,2018-11-06 12:00:11:941
0,1.3384,9.3733,0.0669,2.8261,9.3904,-0.0633,-1.3332,0.4966,0.2193,0.2373,-0.4712,89,1.22,33.98,-1.79,0,-16.58,-0.6,5,38.949,12.922314,77.68371,829.5,NaN,,23.618,,0 / 31,2441,2018-11-06 12:00:11:952
-0.4094,1.2665,9.4786,-0.0333,2.8479,9.384,-0.3779,-1.4257,0.6077,0.1873,0.7263,-0.5074,89,1.22,33.98,-1.79,0,-16.58,-0.6,5,38.949,12.922314,77.68371,829.5,NaN,,23.618,,0 / 31,2451,2018-11-06 12:00:11:962
-0.4094,1.2665,9.4786,-0.0333,2.8479,9.384,-0.3779,-1.4257,0.6077,0.1873,0.7263,-0.5074,89,0.77,34.58,0.16,358.29,-16.88,0.2,5,38.949,12.922314,77.68371,829.5,NaN,,23.618,,0 / 31,2461,2018-11-06 12:00:11:972
-1.0989,1.4221,10.0748,-0.2482,2.8663,9.3751,-0.8642,-1.2883,1.2097,0.1234,1.1023,-0.4318,89,0.77,34.58,0.16,358.29,-16.88,0.2,5,38.949,12.922314,77.68371,829.5,NaN,,23.618,,0 / 31,2470,2018-11-06 12:00:11:981
-1.0989,1.4221,10.0748,-0.2482,2.8663,9.3751,-0.8642,-1.2883,1.2097,0.1234,1.1023,-0.4318,89,0.77,34.58,0.16,358.29,-16.88,0.2,5,38.949,12.922314,77.68371,829.5,NaN,,23.618,,0 / 31,2481,2018-11-06 12:00:11:992
-1.221,1.6065,10.4698,-0.4063,2.8675,9.3692,-0.8367,-1.1062,1.6063,0.0265,0.9382,-0.2379,93,1.52,33.07,0.16,358.29,-16.88,0.2,5,38.949,12.922314,77.68371,829.5,NaN,,23.618,,0 / 31,2491,2018-11-06 12:00:12:002
-0.51,1.8675,10.2975,-0.5052,2.844,9.3716,-0.0317,-0.8247,1.4259,-0.1589,0.2234,0.0806,93,1.52,35.33,-0.44,356.59,-16.86,3.09,5,38.949,12.922314,77.68371,829.5,NaN,,23.618,,0 / 31,2501,2018-11-06 12:00:12:012
-0.51,1.8675,10.2975,-0.5052,2.844,9.3716,-0.0317,-0.8247,1.4259,-0.1589,0.2234,0.0806,93,1.52,35.33,-0.44,356.59,-16.86,3.09,5,38.949,12.922314,77.68371,829.5,NaN,,23.618,,0 / 31,2511,2018-11-06 12:00:12:022
0.3974,1.8747,9.5648,-0.4785,2.8126,9.3825,0.8505,-0.7886,0.6806,-0.2239,-0.2687,0.2383,93,1.82,34.58,-0.89,356.59,-16.86,3.09,5,38.949,12.922314,77.68371,829.5,NaN,,23.618,,0 / 31,2520,2018-11-06 12:00:12:031
0.3974,1.8747,9.5648,-0.4785,2.8126,9.3825,0.8505,-0.7886,0.6806,-0.2239,-0.2687,0.2383,93,1.82,34.58,-0.89,356.59,-16.86,3.09,5,38.949,12.922314,77.68371,829.5,NaN,,23.618,,0 / 31,2531,2018-11-06 12:00:12:042
1.2402,1.6592,8.6886,-0.4017,2.7827,9.395,1.6206,-0.9755,-0.2066,-0.1812,-0.4999,0.2234,93,1.22,36.52,-0.29,358.39,-16.48,2.45,5,38.949,12.922314,77.68371,829.5,NaN,,23.618,,0 / 31,2541,2018-11-06 12:00:12:052
1.3096,1.3982,7.5992,-0.2994,2.7684,9.403,1.5929,-1.2212,-1.2978,0.0393,-0.4434,-0.0515,93,1.22,36.52,-0.29,358.39,-16.48,2.45,5,38.949,12.922314,77.68371,829.5,NaN,,23.618,,0 / 31,2551,2018-11-06 12:00:12:062
1.3096,1.3982,7.5992,-0.2994,2.7684,9.403,1.5929,-1.2212,-1.2978,0.0393,-0.4434,-0.0515,93,0.62,34.43,-0.74,358.39,-16.48,2.45,5,38.949,12.922314,77.68371,829.5,NaN,,23.618,,0 / 31,2561,2018-11-06 12:00:12:072
0.9649,1.4964,6.596,-0.2606,2.7897,9.3979,1.2112,-1.1407,-2.2879,0.2406,-0.2229,-0.2879,93,0.62,34.43,-0.74,358.39,-16.48,2.45,5,38.949,12.922314,77.68371,829.5,NaN,,23.618,,0 / 31,2570,2018-11-06 12:00:12:081
0.9649,1.4964,6.596,-0.2606,2.7897,9.3979,1.2112,-1.1407,-2.2879,0.3791,0.052,-0.468,93,0.62,34.43,-0.74,358.39,-16.48,2.45,5,38.949,12.922314,77.68371,829.5,NaN,,23.618,,0 / 31,2580,2018-11-06 12:00:12:091
0.3783,1.8411,5.5498,-0.2817,2.8532,9.3782,0.6441,-0.8514,-3.3004,0.3791,0.052,-0.468,93,1.07,35.63,-1.19,358.4,-16.53,1.59,5,38.949,12.922314,77.68371,829.5,NaN,,23.618,,0 / 31,2590,2018-11-06 12:00:12:101
0.0431,2.0183,5.1308,-0.3308,2.9124,9.3584,0.3548,-0.726,-3.6876,0.4398,0.2054,-0.5383,93,1.07,35.63,-1.19,358.4,-16.53,1.59,5,38.949,12.922314,77.68371,829.5,NaN,,23.618,,0 / 31,2601,2018-11-06 12:00:12:112
0.0431,2.0183,5.1308,-0.3308,2.9124,9.3584,0.3548,-0.726,-3.6876,0.4387,0.2341,-0.5298,93,1.52,36.38,-1.19,358.4,-16.53,1.59,5,38.949,12.922314,77.68371,829.5,NaN,,23.618,,0 / 31,2611,2018-11-06 12:00:12:122
-0.1125,2.2146,4.6926,-0.3839,2.9696,9.3384,0.2486,-0.5791,-4.0927,0.394,0.2213,-0.4818,93,1.52,36.38,-1.19,358.4,-16.53,1.59,5,38.949,12.922314,77.68371,829.5,NaN,,23.618,,0 / 31,2620,2018-11-06 12:00:12:131
-0.1125,2.2146,4.6926,-0.3839,2.9696,9.3384,0.2486,-0.5791,-4.0927,0.394,0.2213,-0.4818,93,0.77,35.93,-1.49,358.42,-17.63,2.35,5,38.949,12.922314,77.68371,829.5,NaN,,23.618,,0 / 31,2630,2018-11-06 12:00:12:141
-0.2418,2.5235,4.5442,-0.4323,3.0199,9.3201,0.164,-0.3112,-4.2043,0.1735,0.0903,-0.3039,93,0.77,35.93,-1.49,358.42,-17.63,2.35,5,38.949,12.922314,77.68371,829.5,NaN,,23.618,,0 / 31,2640,2018-11-06 12:00:12:151
-0.2418,2.5235,4.5442,-0.4323,3.0199,9.3201,0.164,-0.3112,-4.2043,0.1735,0.0903,-0.3039,101,-0.28,34.58,-0.44,358.42,-17.63,2.35,5,38.949,12.922314,77.68371,829.5,NaN,,23.618,,0 / 31,2651,2018-11-06 12:00:12:162
-0.3376,2.5977,5.0853,-0.448,3.0285,9.3165,0.0823,-0.2407,-3.6465,-0.0108,0.0242,-0.1772,101,-0.28,34.58,-0.44,358.42,-17.63,2.35,5,38.949,12.922314,77.68371,829.5,NaN,,23.618,,0 / 31,2661,2018-11-06 12:00:12:172
-0.5028,2.7102,6.2776,-0.4594,3.0124,9.3212,-0.0728,-0.1088,-2.4451,-0.1386,0.0466,-0.0429,101,1.22,36.83,-2.09,358.56,-17.99,2.75,5,38.949,12.922314,77.68371,829.5,NaN,,23.618,,0 / 31,2671,2018-11-06 12:00:12:182
-0.5028,2.7102,6.2776,-0.4594,3.0124,9.3212,-0.0728,-0.1088,-2.4451,-0.1386,0.0466,-0.0429,101,1.22,36.83,-2.09,358.56,-17.99,2.75,5,38.949,12.922314,77.68371,829.5,NaN,,23.618,,0 / 31,2680,2018-11-06 12:00:12:191
-0.5172,2.8323,7.1515,-0.4684,2.9953,9.3263,-0.0792,0.0313,-1.5698,-0.1333,0.0711,0.0412,101,-0.28,38.18,-1.19,358.56,-17.99,2.75,5,38.949,12.922314,77.68371,829.5,NaN,,23.618,,0 / 31,2690,2018-11-06 12:00:12:201
-0.5172,2.8323,7.1515,-0.4684,2.9953,9.3263,-0.0792,0.0313,-1.5698,-0.1333,0.0711,0.0412,101,-0.28,38.18,-1.19,358.56,-17.99,2.75,5,38.949,12.922314,77.68371,829.5,NaN,,23.618,,0 / 31,2701,2018-11-06 12:00:12:212
-0.407,2.8802,7.8554,-0.4749,2.9841,9.3295,0.0369,0.0909,-0.8653,-0.079,0.0828,0.1307,101,-0.28,36.98,-0.89,0.08,-17.72,2.91,5,38.949,12.922314,77.68371,829.5,NaN,,23.618,,0 / 31,2711,2018-11-06 12:00:12:222
-0.17,2.9066,8.4228,-0.4731,2.981,9.3306,0.2721,0.1207,-0.2968,-0.0151,0.0306,0.2415,101,0.77,38.48,-1.94,0.08,-17.72,2.91,5,38.949,12.922314,77.68371,829.5,NaN,,23.618,,0 / 31,2721,2018-11-06 12:00:12:232
-0.17,2.9066,8.4228,-0.4731,2.981,9.3306,0.2721,0.1207,-0.2968,-0.0151,0.0306,0.2415,101,0.77,38.48,-1.94,0.08,-17.72,2.91,5,38.949,12.922314,77.68371,829.5,NaN,,23.618,,0 / 31,2731,2018-11-06 12:00:12:242
-0.1365,2.8778,8.8705,-0.4547,2.9816,9.3313,0.2884,0.0914,0.1502,-0.0129,-0.0748,0.283,101,0.77,38.48,-1.94,0.08,-17.72,2.91,5,38.949,12.922314,77.68371,829.5,NaN,,23.618,,0 / 31,2740,2018-11-06 12:00:12:251
-0.1365,2.8778,8.8705,-0.4547,2.9816,9.3313,0.2884,0.0914,0.1502,-0.0044,-0.1728,0.3075,101,1.67,37.28,-1.79,356.97,-17.7,2.79,5,38.949,12.922314,77.68371,829.5,NaN,,23.618,,0 / 31,2750,2018-11-06 12:00:12:261
-0.1868,2.8922,9.7516,-0.4068,2.9828,9.3332,0.1936,0.1037,1.0263,0.067,-0.2634,0.315,101,1.67,37.28,-1.79,356.97,-17.7,2.79,5,38.949,12.922314,77.68371,829.5,NaN,,23.618,,0 / 31,2760,2018-11-06 12:00:12:271
-0.3998,2.8563,10.2544,-0.3565,2.9924,9.3321,-0.0663,0.0572,1.5251,0.1351,-0.3092,0.3267,101,1.22,37.88,-2.84,356.97,-17.7,2.79,5,38.039,12.922314,77.68371,829.5,NaN,,23.618,,0 / 31,2770,2018-11-06 12:00:12:281
-0.3998,2.8563,10.2544,-0.3565,2.9924,9.3321,-0.0663,0.0572,1.5251,0.1351,-0.3092,0.3267,101,1.22,37.88,-2.84,356.97,-17.7,2.79,5,38.039,12.922314,77.68371,829.5,NaN,,23.618,,0 / 31,2781,2018-11-06 12:00:12:292
-0.3328,2.6025,10.0485,-0.2975,3.0147,9.327,-0.0544,-0.2189,1.3194,0.1937,-0.3315,0.3438,131,2.57,38.48,-1.49,355.35,-17.9,1.83,5,38.039,12.922314,77.68371,829.5,NaN,,23.618,,0 / 31,2791,2018-11-06 12:00:12:302
0.0551,2.3966,9.5624,-0.2195,3.0526,9.3169,0.2606,-0.4616,0.8389,0.214,-0.2836,0.3224,131,2.57,38.48,-1.49,355.35,-17.9,1.83,5,38.039,12.922314,77.68371,829.5,NaN,,23.618,,0 / 31,2801,2018-11-06 12:00:12:312
0.0551,2.3966,9.5624,-0.2195,3.0526,9.3169,0.2606,-0.4616,0.8389,0.214,-0.2836,0.3224,131,0.77,38.48,-2.24,355.35,-17.9,1.83,5,38.039,12.922314,77.68371,829.5,NaN,,23.618,,0 / 31,2811,2018-11-06 12:00:12:322
0.328,2.4253,9.4595,-0.1777,3.0753,9.3103,0.4944,-0.4548,0.7403,0.1543,-0.1473,0.2553,131,0.77,38.48,-2.24,355.35,-17.9,1.83,5,38.039,12.922314,77.68371,829.5,NaN,,23.618,,0 / 31,2820,2018-11-06 12:00:12:331
0.328,2.4253,9.4595,-0.1777,3.0753,9.3103,0.4944,-0.4548,0.7403,0.1543,-0.1473,0.2553,131,2.12,39.23,-2.99,357.07,-18.28,1.09,5,38.039,12.922314,77.68371,829.5,NaN,,23.618,,0 / 31,2830,2018-11-06 12:00:12:341
-0.2921,2.1763,9.9982,-0.1689,3.0894,9.3058,-0.1338,-0.7181,1.2795,0.0659,0.1191,0.1179,131,2.12,39.23,-2.99,357.07,-18.28,1.09,5,38.039,12.922314,77.68371,829.5,NaN,,23.618,,0 / 31,2841,2018-11-06 12:00:12:352
-1.0487,2.0446,10.6111,-0.2019,3.0875,9.3057,-0.8594,-0.8496,1.8877,-0.0044,0.2927,0.038,131,0.92,38.33,-2.84,357.07,-18.28,1.09,5,38.039,12.922314,77.68371,829.5,NaN,,23.618,,0 / 31,2851,2018-11-06 12:00:12:362
-1.0487,2.0446,10.6111,-0.2019,3.0875,9.3057,-0.8594,-0.8496,1.8877,-0.0044,0.2927,0.038,131,0.92,38.33,-2.84,357.07,-18.28,1.09,5,38.039,12.922314,77.68371,829.5,NaN,,23.618,,0 / 31,2862,2018-11-06 12:00:12:373
-1.7573,2.1356,10.9152,-0.2531,3.0729,9.3093,-1.5199,-0.7471,2.182,-0.1046,0.3566,0.0199,131,2.42,38.33,-2.84,357.04,-18.26,1.56,5,38.039,12.922314,77.68371,829.5,NaN,,23.618,,0 / 31,2870,2018-11-06 12:00:12:381
-1.7573,2.1356,10.9152,-0.2531,3.0729,9.3093,-1.5199,-0.7471,2.182,-0.1046,0.3566,0.0199,131,2.42,38.33,-2.84,357.04,-18.26,1.56,5,38.039,12.922314,77.68371,829.5,NaN,,23.618,,0 / 31,2880,2018-11-06 12:00:12:391
-1.7789,2.9449,10.805,-0.3244,3.0234,9.3233,-1.4743,0.1056,2.0494,-0.3453,0.3896,0.1712,131,-0.13,38.33,-1.79,357.04,-18.26,1.56,5,38.039,12.922314,77.68371,829.5,NaN,,23.618,,0 / 31,2891,2018-11-06 12:00:12:402
-1.7789,2.9449,10.805,-0.3244,3.0234,9.3233,-1.4743,0.1056,2.0494,-0.3453,0.3896,0.1712,154,-0.13,38.33,-1.79,357.04,-18.26,1.56,5,38.039,12.922314,77.68371,829.5,NaN,,23.618,,0 / 31,2901,2018-11-06 12:00:12:412
-0.9433,4.0869,11.4706,-0.3694,2.9608,9.3417,-0.5961,1.3035,2.6885,-0.5179,0.3896,0.3395,154,0.92,39.08,-2.09,358.61,-17.57,2.26,5,38.039,12.922314,77.68371,829.5,NaN,,23.618,,0 / 31,2911,2018-11-06 12:00:12:422
0.0527,4.3167,12.6701,-0.3961,2.8958,9.361,0.2245,1.7315,3.6817,-0.4657,0.2895,0.4769,154,0.92,39.08,-2.09,358.61,-17.57,2.26,5,38.039,12.922314,77.68371,829.5,NaN,,23.618,,0 / 31,2920,2018-11-06 12:00:12:431
0.0527,4.3167,12.6701,-0.3961,2.8958,9.361,0.2245,1.7315,3.6817,-0.4657,0.2895,0.4769,154,1.07,37.73,-0.89,358.61,-17.57,2.26,5,38.039,12.922314,77.68371,829.5,NaN,,23.618,,0 / 31,2931,2018-11-06 12:00:12:442
0.5962,3.6631,12.2511,-0.3825,2.855,9.3741,0.957,0.9694,3.4066,-0.1013,-0.0056,0.5174,154,1.07,37.73,-0.89,358.61,-17.57,2.26,5,38.039,12.922314,77.68371,829.5,NaN,,23.618,,0 / 31,2941,2018-11-06 12:00:12:452
0.5962,3.6631,12.2511,-0.3825,2.855,9.3741,0.957,0.9694,3.4066,-0.1013,-0.0056,0.5174,154,2.42,39.68,-1.04,357.1,-16.93,2.34,5,38.039,12.922314,77.68371,829.5,NaN,,23.618,,0 / 31,2950,2018-11-06 12:00:12:461
0.7278,2.7869,11.0373,-0.3392,2.8649,9.3727,1.0482,0.081,2.1848,0.1373,-0.2133,0.3512,154,2.42,39.68,-1.04,357.1,-16.93,2.34,5,38.039,12.922314,77.68371,829.5,NaN,,23.618,,0 / 31,2960,2018-11-06 12:00:12:471
-0.0503,1.7573,9.3996,-0.2825,2.9107,9.3605,0.2167,-0.9931,0.5544,0.3343,-0.2176,0.005,154,5.12,38.48,-1.94,357.1,-16.93,2.34,5,38.039,12.922314,77.68371,829.5,NaN,,23.618,,0 / 31,2970,2018-11-06 12:00:12:481
-0.0503,1.7573,9.3996,-0.2825,2.9107,9.3605,0.2167,-0.9931,0.5544,0.3343,-0.2176,0.005,154,5.12,38.48,-1.94,357.1,-16.93,2.34,5,38.039,12.922314,77.68371,829.5,NaN,,23.618,,0 / 31,2980,2018-11-06 12:00:12:491
-0.7494,1.5012,8.4348,-0.2837,2.9573,9.3458,-0.4814,-1.2928,-0.395,0.3823,0.0583,-0.2283,154,3.62,40.28,-3.29,354.29,-17.55,1.74,5,38.039,12.922314,77.68371,829.5,NaN,,23.618,,0 / 31,2990,2018-11-06 12:00:12:501
-0.7494,1.5012,8.4348,-0.2837,2.9573,9.3458,-0.4814,-1.2928,-0.395,0.3823,0.0583,-0.2283,154,3.62,40.28,-3.29,354.29,-17.55,1.74,5,38.039,12.922314,77.68371,829.5,NaN,,23.618,,0 / 31,3001,2018-11-06 12:00:12:512
-2.217,1.549,7.6375,-0.343,3.002,9.3296,-1.8638,-1.2969,-1.1663,0.3056,0.5132,-0.3401,154,2.12,40.58,-1.94,354.29,-17.55,1.74,5,38.039,12.922314,77.68371,829.5,NaN,,23.618,,0 / 31,3011,2018-11-06 12:00:12:522
-2.466,2.0423,7.4412,-0.4852,3.0349,9.3126,-2.0082,-0.8215,-1.3462,0.1032,0.7156,-0.2091,154,2.12,40.58,-1.94,354.29,-17.55,1.74,5,38.039,12.922314,77.68371,829.5,NaN,,23.618,,0 / 31,3021,2018-11-06 12:00:12:532
-2.466,2.0423,7.4412,-0.4852,3.0349,9.3126,-2.0082,-0.8215,-1.3462,0.1032,0.7156,-0.2091,154,2.12,40.58,-1.94,354.29,-17.55,1.74,5,38.039,12.922314,77.68371,829.5,NaN,,23.618,,0 / 31,3031,2018-11-06 12:00:12:542
-2.3631,2.2505,7.4867,-0.5613,3.0313,9.3095,-1.7689,-0.3575,-1.1344,0.0158,0.7412,-0.1473,154,1.67,39.38,-3.14,357.23,-18.03,2.98,5,38.039,12.922314,77.68371,829.5,NaN,,23.618,,0 / 31,3041,2018-11-06 12:00:12:552
-2.3631,2.2505,7.4867,-0.5613,3.0313,9.3095,-1.7689,-0.3575,-1.1344,0.0158,0.7412,-0.1473,154,1.67,39.38,-3.14,357.23,-18.03,2.98,5,38.039,12.922314,77.68371,829.5,NaN,,23.618,,0 / 31,3051,2018-11-06 12:00:12:562
-1.7645,3.0789,8.9495,-0.7041,2.966,9.3208,-1.1004,0.2816,0.1587,-0.4007,0.494,0.2735,247,2.72,39.38,-2.09,357.23,-18.03,2.98,5,38.039,12.922314,77.68371,829.5,NaN,,23.618,,0 / 31,3060,2018-11-06 12:00:12:571
-1.4078,2.9928,9.1746,-0.7196,2.8964,9.3415,-0.7289,0.2602,0.3618,-0.4241,0.1436,0.4982,247,3.17,38.63,-3.14,357.23,-18.03,2.98,5,38.039,12.922314,77.68371,829.5,NaN,,23.618,,0 / 31,3070,2018-11-06 12:00:12:581
-1.4078,2.9928,9.1746,-0.7196,2.8964,9.3415,-0.7289,0.2602,0.3618,-0.4018,-0.1473,0.6324,247,3.17,38.63,-3.14,357.23,-18.03,2.98,5,38.039,12.922314,77.68371,829.5,NaN,,23.618,,0 / 31,3081,2018-11-06 12:00:12:592
-0.7997,2.7246,8.6431,-0.6534,2.8525,9.3599,-0.1832,0.0335,-0.1873,-0.3378,-0.4136,0.7251,247,3.17,41.47,-1.79,355.91,-16.91,3.99,5,39.666,12.922314,77.68371,829.5,NaN,,23.618,,0 / 31,3091,2018-11-06 12:00:12:602
-0.7997,2.7246,8.6431,-0.6534,2.8525,9.3599,-0.1832,0.0335,-0.1873,-0.3378,-0.4136,0.7251,247,3.17,41.47,-1.79,355.91,-16.91,3.99,5,39.666,12.922314,77.68371,829.5,NaN,,23.618,,0 / 31,3100,2018-11-06 12:00:12:611
-0.0407,2.3296,7.6471,-0.5375,2.8266,9.3751,0.4662,-0.3363,-1.1946,-0.1844,-0.6714,0.7837,247,5.42,38.48,-2.99,355.91,-16.91,3.99,5,39.666,12.922314,77.68371,829.5,NaN,,23.618,,0 / 31,3113,2018-11-06 12:00:12:624
0.8978,1.992,6.2776,-0.402,2.8193,9.3841,1.2766,-0.6645,-2.5645,-0.0555,-0.7427,0.7305,247,5.42,38.48,-2.99,355.91,-16.91,3.99,5,39.666,12.922314,77.68371,829.5,NaN,,23.618,,0 / 31,3121,2018-11-06 12:00:12:632
0.8978,1.992,6.2776,-0.402,2.8193,9.3841,1.2766,-0.6645,-2.5645,-0.0555,-0.7427,0.7305,247,4.07,41.33,-0.89,354.3,-16.71,2.45,5,39.666,12.922314,77.68371,829.5,NaN,,23.618,,0 / 31,3130,2018-11-06 12:00:12:641
1.8986,1.9513,5.1691,-0.2253,2.8231,9.3888,2.1105,-0.7038,-3.661,0.0148,-0.7246,0.4173,247,4.07,41.33,-0.89,354.3,-16.71,2.45,5,39.666,12.922314,77.68371,829.5,NaN,,23.618,,0 / 31,3141,2018-11-06 12:00:12:652
1.8986,1.9513,5.1691,-0.2253,2.8231,9.3888,2.1105,-0.7038,-3.661,0.0148,-0.7246,0.4173,247,4.97,40.43,-2.09,354.3,-16.71,2.45,5,39.666,12.922314,77.68371,829.5,NaN,,23.618,,0 / 31,3151,2018-11-06 12:00:12:662
1.9992,2.1811,4.9584,-0.1177,2.8335,9.3876,2.1096,-0.4796,-3.8567,0.0819,-0.6042,0.1094,247,4.97,40.43,-2.09,354.3,-16.71,2.45,5,39.666,12.922314,77.68371,829.5,NaN,,23.618,,0 / 31,3161,2018-11-06 12:00:12:672
1.5562,2.6049,4.9752,-0.0477,2.8598,9.3803,1.6009,-0.0764,-3.8196,0.2129,-0.4114,-0.1654,247,6.92,40.28,-2.69,349.88,-16.95,0.29,5,39.666,12.922314,77.68371,829.5,NaN,,23.618,,0 / 31,3170,2018-11-06 12:00:12:681
1.5562,2.6049,4.9752,-0.0477,2.8598,9.3803,1.6009,-0.0764,-3.8196,0.2129,-0.4114,-0.1654,247,6.92,40.28,-2.69,349.88,-16.95,0.29,5,39.666,12.922314,77.68371,829.5,NaN,,23.618,,0 / 31,3181,2018-11-06 12:00:12:692
0.6201,3.0023,4.6471,-0.0141,2.9245,9.3604,0.6333,0.2659,-4.1111,0.3599,-0.1664,-0.3945,247,6.32,41.18,-2.39,349.88,-16.95,0.29,5,39.666,12.922314,77.68371,829.5,NaN,,23.618,,0 / 31,3191,2018-11-06 12:00:12:702
0.6201,3.0023,4.6471,-0.0141,2.9245,9.3604,0.6333,0.2659,-4.1111,0.3599,-0.1664,-0.3945,428,6.32,41.18,-2.39,349.88,-16.95,0.29,5,39.666,12.922314,77.68371,829.5,NaN,,23.618,,0 / 31,3201,2018-11-06 12:00:12:712
-0.0168,3.2753,4.5825,-0.0207,2.9812,9.3425,0.0026,0.4902,-4.1453,0.3588,-0.0524,-0.4552,428,3.62,39.23,-1.94,353.96,-17.7,0.13,5,39.666,12.922314,77.68371,829.5,NaN,,23.618,,0 / 31,3211,2018-11-06 12:00:12:722
-0.7997,3.3591,4.7836,-0.0496,3.0463,9.3214,-0.7534,0.5189,-3.907,0.2651,0.0296,-0.4019,428,3.62,39.23,-1.94,353.96,-17.7,0.13,5,39.666,12.922314,77.68371,829.5,NaN,,23.618,,0 / 31,3220,2018-11-06 12:00:12:731
-0.7997,3.3591,4.7836,-0.0496,3.0463,9.3214,-0.7534,0.5189,-3.907,0.2651,0.0296,-0.4019,428,5.57,41.47,-3.14,353.96,-17.7,0.13,5,39.666,12.922314,77.68371,829.5,NaN,,23.618,,0 / 31,3231,2018-11-06 12:00:12:742
-1.2139,3.3998,5.1236,-0.0765,3.0771,9.3111,-1.1426,0.5347,-3.5457,0.1319,0.0743,-0.2709,428,5.57,41.47,-3.14,353.96,-17.7,0.13,5,39.666,12.922314,77.68371,829.5,NaN,,23.618,,0 / 31,3241,2018-11-06 12:00:12:752
-1.2139,3.3998,5.1236,-0.0765,3.0771,9.3111,-1.1426,0.5347,-3.5457,0.1319,0.0743,-0.2709,428,5.57,41.47,-3.14,353.96,-17.7,0.13,5,39.666,12.922314,77.68371,829.5,NaN,,23.618,,0 / 31,3250,2018-11-06 12:00:12:761
-1.154,3.6081,6.1172,-0.0992,3.0857,9.308,-1.1359,0.6881,-2.8913,-0.0406,0.0797,-0.0877,428,3.47,39.68,-4.19,355.68,-18.29,0.47,5,39.666,12.922314,77.68371,829.5,NaN,,23.618,,0 / 31,3260,2018-11-06 12:00:12:771
-0.893,3.7876,7.2329,-0.1111,3.0586,9.3168,-0.7898,0.9456,-1.4242,-0.2686,0.0338,0.1765,428,3.32,39.83,-2.69,355.68,-18.29,0.47,5,39.666,12.922314,77.68371,829.5,NaN,,23.618,,0 / 31,3271,2018-11-06 12:00:12:782
-0.893,3.7876,7.2329,-0.1111,3.0586,9.3168,-0.7898,0.9456,-1.4242,-0.2686,0.0338,0.1765,428,3.32,39.83,-2.69,355.68,-18.29,0.47,5,39.666,12.922314,77.68371,829.5,NaN,,23.618,,0 / 31,3281,2018-11-06 12:00:12:792
-0.2634,3.8283,8.588,-0.0922,3.0163,9.3308,-0.1777,1.0259,-0.0814,-0.3687,-0.1046,0.3299,428,3.77,40.13,-3.59,354.25,-17.91,0.57,5,39.666,12.922314,77.68371,829.5,NaN,,23.618,,0 / 31,3291,2018-11-06 12:00:12:802
-0.2634,3.8283,8.588,-0.0922,3.0163,9.3308,-0.1777,1.0259,-0.0814,-0.3687,-0.1046,0.3299,516,3.77,40.13,-3.59,354.25,-17.91,0.57,5,39.666,12.922314,77.68371,829.5,NaN,,23.618,,0 / 31,3301,2018-11-06 12:00:12:812
0.4166,3.4788,10.082,-0.0217,2.9531,9.3514,0.4368,0.7334,1.3882,-0.3325,-0.3433,0.4013,516,4.37,40.58,-1.94,354.25,-17.91,0.57,5,39.666,12.922314,77.68371,829.5,NaN,,23.618,,0 / 31,3310,2018-11-06 12:00:12:821
0.7997,3.316,10.331,0.0601,2.9192,9.3619,0.7438,0.6002,1.6213,-0.2026,-0.5169,0.3374,516,4.37,40.58,-1.94,354.25,-17.91,0.57,5,39.666,12.922314,77.68371,829.5,NaN,,23.618,,0 / 31,3321,2018-11-06 12:00:12:832
0.7997,3.316,10.331,0.0601,2.9192,9.3619,0.7438,0.6002,1.6213,-0.0939,-0.6075,0.1595,516,4.52,39.68,-1.79,352.63,-17.32,-0.37,5,39.666,12.922314,77.68371,829.5,NaN,,23.618,,0 / 31,3331,2018-11-06 12:00:12:842
1.2354,3.3375,9.9312,0.1851,2.8986,9.3666,1.0631,0.6386,1.2099,-0.0619,-0.5766,0.005,516,4.52,39.68,-1.79,352.63,-17.32,-0.37,5,39.666,12.922314,77.68371,829.5,NaN,,23.618,,0 / 31,3341,2018-11-06 12:00:12:852
1.2354,3.3375,9.9312,0.1851,2.8986,9.3666,1.0631,0.6386,1.2099,-0.0619,-0.5766,0.005,516,5.27,40.43,-3.14,352.63,-17.32,-0.37,5,39.666,12.922314,77.68371,829.5,NaN,,23.618,,0 / 31,3351,2018-11-06 12:00:12:862
1.3048,3.3232,10.1634,0.2588,2.8934,9.3665,1.0637,0.6276,1.4372,-0.0321,-0.4743,-0.1772,516,5.27,40.43,-3.14,352.63,-17.32,-0.37,5,39.666,12.922314,77.68371,829.5,NaN,,23.618,,0 / 31,3360,2018-11-06 12:00:12:871
1.0056,3.1101,10.9056,0.2896,2.8989,9.3639,0.7355,0.4071,2.1746,0.0723,-0.2303,-0.4659,516,4.67,39.83,-2.24,352.56,-17.19,-1.77,5,39.666,12.922314,77.68371,829.5,NaN,,23.618,,0 / 31,3370,2018-11-06 12:00:12:881
1.0056,3.1101,10.9056,0.2896,2.8989,9.3639,0.7355,0.4071,2.1746,0.0723,-0.2303,-0.4659,516,4.67,39.83,-2.24,352.56,-17.19,-1.77,5,39.666,12.922314,77.68371,829.5,NaN,,23.618,,0 / 31,3381,2018-11-06 12:00:12:892
0.34,2.5642,11.3605,0.2548,2.9328,9.3544,0.1021,-0.174,2.6268,0.2374,0.1233,-0.7663,516,3.62,41.03,-2.24,352.56,-17.19,-1.77,5,39.666,12.922314,77.68371,829.5,NaN,,23.618,,0 / 31,3391,2018-11-06 12:00:12:902
0.34,2.5642,11.3605,0.2548,2.9328,9.3544,0.1021,-0.174,2.6268,0.2374,0.1233,-0.7663,615,3.62,41.03,-2.24,352.56,-17.19,-1.77,5,39.666,12.922314,77.68371,829.5,NaN,,23.618,,0 / 31,3401,2018-11-06 12:00:12:912
-0.2035,2.083,11.5568,0.173,2.9628,9.3468,-0.3652,-0.686,2.8214,0.2118,0.3939,-0.9335,615,1.22,41.93,-2.84,358.52,-17.59,-1.06,5,39.666,12.922314,77.68371,829.5,NaN,,23.618,,0 / 31,3410,2018-11-06 12:00:12:921
-1.2737,2.3176,12.4786,0.0069,2.9693,9.3463,-1.2802,-0.462,3.7292,0.0435,0.5931,-1.0294,615,1.22,41.93,-2.84,358.52,-17.59,-1.06,5,40.144,12.922314,77.68371,829.5,NaN,,23.618,,0 / 31,3421,2018-11-06 12:00:12:932
-1.2737,2.3176,12.4786,0.0069,2.9693,9.3463,-1.2802,-0.462,3.7292,-0.1077,0.6155,-1.0059,615,1.97,42.23,-3.14,358.52,-17.59,-1.06,5,40.144,12.922314,77.68371,829.5,NaN,,23.618,,0 / 31,3431,2018-11-06 12:00:12:942
-1.7382,3.2441,13.2687,-0.1214,2.9381,9.3554,-1.6244,0.4891,4.4962,-0.2697,0.5462,-0.8941,615,1.97,42.23,-3.14,358.52,-17.59,-1.06,5,40.144,12.922314,77.68371,829.5,NaN,,23.618,,0 / 31,3441,2018-11-06 12:00:12:952
-1.7382,3.2441,13.2687,-0.1214,2.9381,9.3554,-1.6244,0.4891,4.4962,-0.2697,0.5462,-0.8941,615,1.97,42.23,-3.14,358.52,-17.59,-1.06,5,40.144,12.922314,77.68371,829.5,NaN,,23.618,,0 / 31,3451,2018-11-06 12:00:12:962
-1.5802,3.8044,14.2934,-0.2181,2.8832,9.3707,-1.3752,1.095,5.4878,-0.389,0.3811,-0.615,615,0.17,41.93,-4.64,0.16,-17.1,1.33,5,40.144,12.922314,77.68371,829.5,NaN,,23.618,,0 / 31,3461,2018-11-06 12:00:12:972
-0.8212,3.2226,14.4155,-0.2837,2.8257,9.3865,-0.5537,0.559,5.5675,-0.1695,0.1393,-0.1601,615,1.07,41.63,-1.19,0.16,-17.1,1.33,5,40.144,12.922314,77.68371,829.5,NaN,,23.618,,0 / 31,3470,2018-11-06 12:00:12:981
-0.8212,3.2226,14.4155,-0.2837,2.8257,9.3865,-0.5537,0.559,5.5675,-0.1695,0.1393,-0.1601,615,1.07,41.63,-1.19,0.16,-17.1,1.33,5,40.144,12.922314,77.68371,829.5,NaN,,23.618,,0 / 31,3481,2018-11-06 12:00:12:992
-0.0024,2.2936,12.6869,-0.2799,2.8183,9.3888,0.2619,-0.3676,3.8213,0.0382,-0.0929,0.1435,615,1.07,42.38,-1.94,358.68,-16.7,1.71,5,40.144,12.922314,77.68371,829.5,NaN,,23.618,,0 / 31,3491,2018-11-06 12:00:13:002
-0.0024,2.2936,12.6869,-0.2799,2.8183,9.3888,0.2619,-0.3676,3.8213,0.0382,-0.0929,0.1435,615,1.07,42.38,-1.94,358.68,-16.7,1.71,5,40.144,12.922314,77.68371,829.5,NaN,,23.618,,0 / 31,3501,2018-11-06 12:00:13:012
1.5179,1.3551,10.1873,-0.2069,2.814,9.392,1.3215,-1.1381,1.8135,-0.0524,-0.3635,0.3182,714,1.67,42.23,-1.79,358.68,-16.7,1.71,5,40.144,12.922314,77.68371,829.5,NaN,,23.618,,0 / 31,3510,2018-11-06 12:00:13:021
2.2266,1.0678,9.5816,-0.2069,2.814,9.392,1.3215,-1.1381,1.8135,-0.2441,-0.3614,0.1978,714,1.67,42.23,-1.79,358.68,-16.7,1.71,5,40.144,12.922314,77.68371,829.5,NaN,,23.618,,0 / 31,3520,2018-11-06 12:00:13:031
2.2266,1.0678,9.5816,-0.1353,2.7832,9.4024,2.3545,-1.5631,0.6936,-0.2441,-0.3614,0.1978,714,3.17,41.93,-1.79,355.84,-16.49,0.82,5,40.144,12.922314,77.68371,829.5,NaN,,23.618,,0 / 31,3530,2018-11-06 12:00:13:041
1.7549,0.6369,9.4188,-0.0902,2.7292,9.4188,1.8402,-1.9431,0.5153,-0.3804,-0.1803,-0.027,714,3.17,41.93,-1.79,355.84,-16.49,0.82,5,40.144,12.922314,77.68371,829.5,NaN,,23.618,,0 / 31,3540,2018-11-06 12:00:13:051
1.7549,0.6369,9.4188,-0.0902,2.7292,9.4188,1.8402,-1.9431,0.5153,-0.3804,-0.1803,-0.027,714,3.17,41.93,-1.79,355.84,-16.49,0.82,5,40.144,12.922314,77.68371,829.5,NaN,,23.618,,0 / 31,3551,2018-11-06 12:00:13:062
0.6033,0.8404,9.5529,-0.0939,2.6262,9.448,0.6921,-1.6421,0.6219,-0.5775,0.1073,-0.2464,714,2.72,42.53,-0.29,355.84,-16.49,0.82,5,40.144,12.922314,77.68371,829.5,NaN,,23.618,,0 / 31,3561,2018-11-06 12:00:13:072
0.1365,1.4293,10.7979,-0.1631,2.4978,9.4818,0.2908,-0.933,1.8303,-0.6638,0.347,-0.305,714,2.72,42.53,-0.29,355.84,-16.49,0.82,5,40.144,12.922314,77.68371,829.5,NaN,,23.618,,0 / 31,3571,2018-11-06 12:00:13:082
0.1365,1.4293,10.7979,-0.1631,2.4978,9.4818,0.2908,-0.933,1.8303,-0.5509,0.5143,-0.3306,714,2.72,42.53,-0.29,355.84,-16.49,0.82,5,40.144,12.922314,77.68371,829.5,NaN,,23.618,,0 / 31,3580,2018-11-06 12:00:13:091
-0.1365,1.6472,11.4323,-0.2451,2.4157,9.5013,0.0955,-0.6394,2.4388,-0.3975,0.5185,-0.3263,714,1.97,41.47,-0.29,357.12,-14.26,1.48,5,40.144,12.922314,77.68371,829.5,NaN,,23.618,,0 / 31,3591,2018-11-06 12:00:13:102
-0.1365,1.6472,11.4323,-0.2451,2.4157,9.5013,0.0955,-0.6394,2.4388,-0.3975,0.5185,-0.3263,714,1.97,41.47,-0.29,357.12,-14.26,1.48,5,40.144,12.922314,77.68371,829.5,NaN,,23.618,,0 / 31,3601,2018-11-06 12:00:13:112
-0.2131,1.8579,11.236,-0.3226,2.3665,9.5114,0.0926,-0.3841,2.2251,-0.2271,0.4269,-0.3156,799,1.22,42.53,1.81,357.12,-14.26,1.48,5,40.144,12.922314,77.68371,829.5,NaN,,23.618,,0 / 31,3611,2018-11-06 12:00:13:122
-0.1245,2.0351,10.3932,-0.3725,2.3526,9.513,0.2286,-0.1952,1.3751,0.0041,0.2043,-0.3092,799,1.22,42.53,1.81,357.12,-14.26,1.48,5,40.144,12.922314,77.68371,829.5,NaN,,23.618,,0 / 31,3621,2018-11-06 12:00:13:132
-0.1245,2.0351,10.3932,-0.3725,2.3526,9.513,0.2286,-0.1952,1.3751,0.0041,0.2043,-0.3092,799,1.07,41.63,0.61,358.53,-13.88,2.24,5,40.144,12.922314,77.68371,829.5,NaN,,23.618,,0 / 31,3631,2018-11-06 12:00:13:142
-0.1245,2.0351,10.3932,-0.3725,2.3526,9.513,0.2286,-0.1952,1.3751,0.0041,0.2043,-0.3092,799,1.07,41.63,0.61,358.53,-13.88,2.24,5,40.144,12.922314,77.68371,829.5,NaN,,23.618,,0 / 31,3640,2018-11-06 12:00:13:151
-0.1508,2.0207,8.7843,-0.382,2.3766,9.5066,0.2114,-0.2327,-0.2294,0.2172,-0.1473,-0.2837,799,1.07,41.63,0.61,358.53,-13.88,2.24,5,40.144,12.922314,77.68371,829.5,NaN,,23.618,,0 / 31,3651,2018-11-06 12:00:13:162
-0.1341,1.9417,7.5154,-0.3497,2.4133,9.4986,0.1973,-0.3455,-1.4867,0.2949,-0.3571,-0.2698,799,0.02,42.68,1.36,358.53,-13.88,2.24,5,40.144,12.922314,77.68371,829.5,NaN,,23.618,,0 / 31,3661,2018-11-06 12:00:13:172
-0.1149,2.0135,6.0861,-0.2798,2.4719,9.4859,0.1499,-0.3261,-2.8923,0.3152,-0.4658,-0.2794,799,1.52,43.42,0.16,357.25,-14.6,1.69,5,40.144,12.922314,77.68371,829.5,NaN,,23.618,,0 / 31,3671,2018-11-06 12:00:13:182
-0.1149,2.0135,6.0861,-0.2798,2.4719,9.4859,0.1499,-0.3261,-2.8923,0.3152,-0.4658,-0.2794,799,1.52,43.42,0.16,357.25,-14.6,1.69,5,40.144,12.922314,77.68371,829.5,NaN,,23.618,,0 / 31,3681,2018-11-06 12:00:13:192
-0.079,2.1955,5.3582,-0.2275,2.5159,9.4757,0.136,-0.1826,-3.5984,0.2971,-0.4285,-0.2816,799,1.22,42.53,-1.34,357.25,-14.6,1.69,5,40.144,12.922314,77.68371,829.5,NaN,,23.618,,0 / 31,3690,2018-11-06 12:00:13:201
-0.079,2.1955,5.3582,-0.2275,2.5159,9.4757,0.136,-0.1826,-3.5984,0.2971,-0.4285,-0.2816,799,1.22,42.53,-1.34,357.25,-14.6,1.69,5,40.144,12.922314,77.68371,829.5,NaN,,23.618,,0 / 31,3701,2018-11-06 12:00:13:212
-0.103,2.3918,4.9488,-0.1869,2.5584,9.4652,0.0734,-0.0228,-3.9843,0.2779,-0.3177,-0.257,884,0.17,44.78,-0.74,0.03,-15.12,1.13,5,40.144,12.922314,77.68371,829.5,NaN,,23.618,,0 / 31,3710,2018-11-06 12:00:13:221
-0.0168,2.4804,4.7094,-0.1656,2.6102,9.4514,0.1392,0.0222,-4.1913,0.231,-0.0865,-0.2059,884,0.17,44.78,-0.74,0.03,-15.12,1.13,5,40.144,12.922314,77.68371,829.5,NaN,,23.618,,0 / 31,3720,2018-11-06 12:00:13:231
-0.0168,2.4804,4.7094,-0.1656,2.6102,9.4514,0.1392,0.0222,-4.1913,0.231,-0.0865,-0.2059,884,-0.13,42.98,-0.74,0.03,-15.12,1.13,5,40.144,12.922314,77.68371,829.5,NaN,,23.618,,0 / 31,3731,2018-11-06 12:00:13:242
-0.012,2.5498,4.9943,-0.1757,2.6416,9.4425,0.1532,0.0661,-3.8841,0.1809,0.0722,-0.1772,884,-0.13,42.98,-0.74,0.03,-15.12,1.13,5,40.314,12.922314,77.68371,829.5,NaN,,23.618,,0 / 31,3741,2018-11-06 12:00:13:252
-0.012,2.5498,4.9943,-0.1757,2.6416,9.4425,0.1532,0.0661,-3.8841,0.1809,0.0722,-0.1772,884,-0.13,42.98,-0.74,0.03,-15.12,1.13,5,40.314,12.922314,77.68371,829.5,NaN,,23.618,,0 / 31,3751,2018-11-06 12:00:13:262
-0.0862,2.5211,5.7126,-0.2099,2.6774,9.4317,0.1109,0.0081,-3.1399,0.1714,0.1734,-0.1377,884,0.32,43.88,-1.94,0.05,-15.63,1.07,5,40.314,12.922314,77.68371,829.5,NaN,,23.618,,0 / 31,3761,2018-11-06 12:00:13:272
-0.091,2.4014,6.0813,-0.2433,2.7056,9.4229,0.1371,-0.1351,-2.7527,0.1948,0.2267,-0.1111,884,1.67,43.58,0.01,0.05,-15.63,1.07,5,40.314,12.922314,77.68371,829.5,NaN,,23.618,,0 / 31,3771,2018-11-06 12:00:13:282
-0.091,2.4014,6.0813,-0.2433,2.7056,9.4229,0.1371,-0.1351,-2.7527,0.1948,0.2267,-0.1111,884,1.67,43.58,0.01,0.05,-15.63,1.07,5,40.314,12.922314,77.68371,829.5,NaN,,23.618,,0 / 31,3780,2018-11-06 12:00:13:291
-0.2131,2.4301,6.3351,-0.2866,2.7371,9.4126,0.0554,-0.1333,-2.4803,0.2204,0.3183,-0.0611,884,1.22,43.28,-0.74,358.66,-16.21,1.74,5,40.314,12.922314,77.68371,829.5,NaN,,23.618,,0 / 31,3791,2018-11-06 12:00:13:302
-0.2131,2.4301,6.3351,-0.2866,2.7371,9.4126,0.0554,-0.1333,-2.4803,0.1692,0.3481,0.0082,884,1.22,43.28,-0.74,358.66,-16.21,1.74,5,40.314,12.922314,77.68371,829.5,NaN,,23.618,,0 / 31,3801,2018-11-06 12:00:13:312
-0.0599,2.624,6.8259,-0.3495,2.773,9.3999,0.2671,0.03,-1.9673,0.1032,0.3374,0.0466,937,-0.13,44.78,-2.09,358.66,-16.21,1.74,5,40.314,12.922314,77.68371,829.5,NaN,,23.618,,0 / 31,3810,2018-11-06 12:00:13:321
-0.0599,2.624,6.8259,-0.3495,2.773,9.3999,0.2671,0.03,-1.9673,0.1032,0.3374,0.0466,937,-0.13,44.78,-2.09,358.66,-16.21,1.74,5,40.314,12.922314,77.68371,829.5,NaN,,23.618,,0 / 31,3820,2018-11-06 12:00:13:331
0.0311,2.7557,7.9033,-0.3904,2.7865,9.3943,0.3962,0.1504,-0.8804,0.0638,0.3119,0.0934,937,-0.13,44.78,-2.09,358.66,-16.21,1.74,5,40.314,12.922314,77.68371,829.5,NaN,,23.618,,0 / 31,3830,2018-11-06 12:00:13:341
0.0551,2.7198,8.9088,-0.4217,2.7982,9.3895,0.4494,0.1037,0.1302,0.0893,0.2597,0.152,937,0.17,44.33,-0.74,0.06,-16.58,2.57,5,40.314,12.922314,77.68371,829.5,NaN,,23.618,,0 / 31,3841,2018-11-06 12:00:13:352
0.0551,2.7198,8.9088,-0.4217,2.7982,9.3895,0.4494,0.1037,0.1302,0.1373,0.1851,0.1957,937,0.17,44.33,-0.74,0.06,-16.58,2.57,5,40.314,12.922314,77.68371,829.5,NaN,,23.618,,0 / 31,3851,2018-11-06 12:00:13:362
0.1939,2.4732,9.481,-0.4447,2.8227,9.3811,0.6098,-0.1666,0.708,0.1511,0.1105,0.1989,937,1.97,44.33,-2.84,0.06,-16.58,2.57,5,40.314,12.922314,77.68371,829.5,NaN,,23.618,,0 / 31,3860,2018-11-06 12:00:13:371
0.3831,2.3487,9.7229,-0.4443,2.8425,9.3751,0.7987,-0.3104,0.9529,0.1447,0.0445,0.1744,937,1.97,44.78,-2.09,357.5,-16.85,2.71,5,40.314,12.922314,77.68371,829.5,NaN,,23.618,,0 / 31,3870,2018-11-06 12:00:13:381
0.3831,2.3487,9.7229,-0.4443,2.8425,9.3751,0.7987,-0.3104,0.9529,0.1447,0.0445,0.1744,937,1.97,44.78,-2.09,357.5,-16.85,2.71,5,40.314,12.922314,77.68371,829.5,NaN,,23.618,,0 / 31,3881,2018-11-06 12:00:13:392
0.2011,2.1476,10.0102,-0.4345,2.8667,9.3682,0.6078,-0.5354,1.2422,0.1522,-0.0056,0.0796,937,0.17,45.83,-0.74,357.5,-16.85,2.71,5,40.314,12.922314,77.68371,829.5,NaN,,23.618,,0 / 31,3891,2018-11-06 12:00:13:402
0.2011,2.1476,10.0102,-0.4345,2.8667,9.3682,0.6078,-0.5354,1.2422,0.1522,-0.0056,0.0796,937,0.17,45.83,-0.74,357.5,-16.85,2.71,5,40.314,12.922314,77.68371,829.5,NaN,,23.618,,0 / 31,3901,2018-11-06 12:00:13:412
-0.17,2.15,10.1778,-0.4335,2.8875,9.3619,0.2359,-0.5538,1.4117,0.1895,0.037,0.022,991,1.52,44.48,-1.94,357.44,-17.12,2.65,5,40.314,12.922314,77.68371,829.5,NaN,,23.618,,0 / 31,3910,2018-11-06 12:00:13:421
-0.6464,2.2266,10.2208,-0.4471,2.9137,9.3531,-0.2276,-0.5031,1.4584,0.2214,0.1329,-0.0014,991,1.52,44.48,-1.94,357.44,-17.12,2.65,5,40.314,12.922314,77.68371,829.5,NaN,,23.618,,0 / 31,3921,2018-11-06 12:00:13:432
-0.6464,2.2266,10.2208,-0.4471,2.9137,9.3531,-0.2276,-0.5031,1.4584,0.2214,0.1329,-0.0014,991,2.12,44.48,-2.69,357.44,-17.12,2.65,5,40.314,12.922314,77.68371,829.5,NaN,,23.618,,0 / 31,3931,2018-11-06 12:00:13:442
-1.7286,2.0877,9.9862,-0.494,2.9431,9.3416,-1.2655,-0.6711,1.2293,0.1309,0.3183,0.0796,991,2.12,44.48,-2.69,357.44,-17.12,2.65,5,40.314,12.922314,77.68371,829.5,NaN,,23.618,,0 / 31,3941,2018-11-06 12:00:13:452
-1.7286,2.0877,9.9862,-0.494,2.9431,9.3416,-1.2655,-0.6711,1.2293,0.1309,0.3183,0.0796,991,2.12,44.48,-2.69,357.44,-17.12,2.65,5,40.314,12.922314,77.68371,829.5,NaN,,23.618,,0 / 31,3951,2018-11-06 12:00:13:462
-2.2841,2.1045,10.2448,-0.5461,2.9386,9.3401,-1.7719,-0.6515,1.4851,-0.0918,0.4216,0.2511,991,3.17,46.13,-2.09,356.3,-17.44,3.35,5,40.314,12.922314,77.68371,829.5,NaN,,23.618,,0 / 31,3960,2018-11-06 12:00:13:471
-2.2458,2.083,10.6326,-0.6214,2.8861,9.3517,-1.6625,-0.6261,1.8546,-0.3868,0.5526,0.5334,991,3.32,45.98,-1.49,356.3,-17.44,3.35,5,40.314,12.922314,77.68371,829.5,NaN,,23.618,,0 / 31,3971,2018-11-06 12:00:13:482
-2.2458,2.083,10.6326,-0.6214,2.8861,9.3517,-1.6625,-0.6261,1.8546,-0.3868,0.5526,0.5334,991,3.32,45.98,-1.49,356.3,-17.44,3.35,5,40.314,12.922314,77.68371,829.5,NaN,,23.618,,0 / 31,3981,2018-11-06 12:00:13:492
-1.1085,2.6911,11.1043,-0.6892,2.8202,9.3671,-0.4611,0.0417,2.3046,-0.552,0.7199,0.7059,991,3.77,45.83,-1.79,355.09,-16.71,4.21,5,40.314,12.922314,77.68371,829.5,NaN,,23.618,,0 / 31,3991,2018-11-06 12:00:13:502
-1.1085,2.6911,11.1043,-0.6892,2.8202,9.3671,-0.4611,0.0417,2.3046,-0.6063,0.7912,0.7805,991,3.77,45.83,-1.79,355.09,-16.71,4.21,5,40.314,12.922314,77.68371,829.5,NaN,,23.618,,0 / 31,4000,2018-11-06 12:00:13:511
0.3376,3.4788,12.4068,-0.7864,2.7206,9.3888,1.0776,0.9187,3.5718,-0.536,0.722,0.7976,900,3.47,45.08,-0.29,355.09,-16.71,4.21,5,40.314,12.922314,77.68371,829.5,NaN,,23.618,,0 / 31,4010,2018-11-06 12:00:13:521
0.3376,3.4788,12.4068,-0.7864,2.7206,9.3888,1.0776,0.9187,3.5718,-0.536,0.722,0.7976,900,3.47,45.08,-0.29,355.09,-16.71,4.21,5,40.314,12.922314,77.68371,829.5,NaN,,23.618,,0 / 31,4020,2018-11-06 12:00:13:531
0.8858,3.3136,12.7395,-0.8366,2.6638,9.4008,1.6743,0.803,3.8797,-0.4092,0.5558,0.7997,900,3.47,45.08,-0.29,355.09,-16.71,4.21,5,40.314,12.922314,77.68371,829.5,NaN,,23.618,,0 / 31,4030,2018-11-06 12:00:13:541
1.4078,2.7988,12.4474,-0.8445,2.6325,9.4089,2.2048,0.3142,3.5673,-0.2196,0.2192,0.7059,900,4.22,45.83,0.46,354.87,-15.57,5.13,5,40.314,12.922314,77.68371,829.5,NaN,,23.618,,0 / 31,4041,2018-11-06 12:00:13:552
1.4078,2.7988,12.4474,-0.8445,2.6325,9.4089,2.2048,0.3142,3.5673,-0.2196,0.2192,0.7059,900,4.22,45.83,0.46,354.87,-15.57,5.13,5,40.314,12.922314,77.68371,829.5,NaN,,23.618,,0 / 31,4051,2018-11-06 12:00:13:562
0.826,1.7047,11.3629,-0.7924,2.6184,9.4174,1.5749,-0.77,2.4623,-0.0225,-0.2421,0.3651,900,7.07,44.78,-0.74,354.87,-15.57,5.13,5,40.314,12.922314,77.68371,829.5,NaN,,23.618,,0 / 31,4061,2018-11-06 12:00:13:572
0.826,1.7047,11.3629,-0.7924,2.6184,9.4174,0.4924,-1.2176,1.1179,-0.0225,-0.2421,0.3651,900,7.07,44.78,-0.74,354.87,-15.57,5.13,5,40.314,12.922314,77.68371,829.5,NaN,,23.618,,0 / 31,4071,2018-11-06 12:00:13:582
-0.1987,1.2594,10.0269,-0.7309,2.6196,9.422,0.4924,-1.2176,1.1179,0.0531,-0.3987,0.0923,900,6.32,45.83,-0.29,354.87,-15.57,5.13,5,39.558,12.922314,77.68371,829.5,NaN,,23.618,,0 / 31,4080,2018-11-06 12:00:13:591
-1.7549,1.2402,8.8226,-0.6859,2.6214,9.4249,-1.1121,-1.2382,-0.0897,0.0499,-0.2879,-0.109,900,7.07,45.83,-0.74,354.87,-15.57,4.16,5,39.558,12.922314,77.68371,829.5,NaN,,23.618,,0 / 31,4091,2018-11-06 12:00:13:602
-1.7549,1.2402,8.8226,-0.6859,2.6214,9.4249,-1.1121,-1.2382,-0.0897,0.0499,-0.2879,-0.109,900,7.07,45.83,-0.74,351.22,-15.5,4.16,5,39.558,12.922314,77.68371,829.5,NaN,,23.618,,0 / 31,4100,2018-11-06 12:00:13:611
-2.4995,1.4844,8.2504,-0.69,2.6125,9.4271,-1.8473,-0.9852,-0.661,-0.0651,0.0818,-0.1005,900,7.07,45.83,-0.74,351.22,-15.5,4.16,5,39.558,12.922314,77.68371,829.5,NaN,,23.618,,0 / 31,4111,2018-11-06 12:00:13:622
-2.5403,1.8196,8.2552,-0.7164,2.5984,9.429,-1.8631,-0.6362,-0.6563,-0.1568,0.2661,-0.012,900,5.42,46.73,-1.49,351.22,-15.5,4.16,5,39.558,12.922314,77.68371,829.5,NaN,,23.618,,0 / 31,4121,2018-11-06 12:00:13:632
-1.6975,2.4397,9.165,-0.7976,2.5577,9.4336,-0.9437,0.0224,0.2495,-0.2345,0.4972,0.1637,900,5.42,46.73,-1.49,351.22,-15.5,4.16,5,39.558,12.922314,77.68371,829.5,NaN,,23.618,,0 / 31,4130,2018-11-06 12:00:13:641
-1.6975,2.4397,9.165,-0.7976,2.5577,9.4336,-0.9437,0.0224,0.2495,-0.1855,0.4898,0.2351,900,7.82,45.08,-1.04,349.81,-15.12,4.83,5,39.558,12.922314,77.68371,829.5,NaN,,23.618,,0 / 31,4141,2018-11-06 12:00:13:652
-1.0391,2.4732,9.5672,-0.8576,2.5347,9.4345,-0.2283,0.0771,0.6486,-0.1855,0.4898,0.2351,900,7.82,45.08,-1.04,349.81,-15.12,4.83,5,39.558,12.922314,77.68371,829.5,NaN,,23.618,,0 / 31,4151,2018-11-06 12:00:13:662
-0.6728,2.2769,9.4715,-0.891,2.5291,9.4329,0.1697,-0.1145,0.5522,-0.1067,0.4024,0.2873,743,6.77,45.83,-0.74,349.81,-15.12,4.83,5,39.558,12.922314,77.68371,829.5,NaN,,23.618,,0 / 31,4160,2018-11-06 12:00:13:671
-0.6728,2.2769,9.4715,-0.891,2.5291,9.4329,0.1697,-0.1145,0.5522,0.0244,0.1265,0.332,743,6.77,45.83,-0.74,349.81,-15.12,4.83,5,39.558,12.922314,77.68371,829.5,NaN,,23.618,,0 / 31,4170,2018-11-06 12:00:13:681
-0.2873,1.9369,8.655,-0.8768,2.5418,9.4309,0.5417,-0.4664,-0.262,0.1096,-0.1281,0.3416,743,7.67,46.73,-0.44,350.09,-14.95,5.4,5,39.558,12.922314,77.68371,829.5,NaN,,23.618,,0 / 31,4180,2018-11-06 12:00:13:691
0.0096,1.7645,7.7428,-0.8373,2.5592,9.4297,0.801,-0.6545,-1.1705,0.182,-0.3763,0.3395,743,7.67,46.73,-0.44,350.09,-14.95,5.4,5,39.558,12.922314,77.68371,829.5,NaN,,23.618,,0 / 31,4190,2018-11-06 12:00:13:701
0.0096,1.7645,7.7428,-0.8373,2.5592,9.4297,0.801,-0.6545,-1.1705,0.182,-0.3763,0.3395,743,8.12,46.13,-0.74,350.09,-14.95,5.4,5,39.558,12.922314,77.68371,829.5,NaN,,23.618,,0 / 31,4200,2018-11-06 12:00:13:711
0.431,1.5467,6.3351,-0.7444,2.5919,9.4286,1.1339,-0.901,-2.5688,0.2236,-0.632,0.3065,743,8.12,46.13,-0.74,350.09,-14.95,5.4,5,39.558,12.922314,77.68371,829.5,NaN,,23.618,,0 / 31,4211,2018-11-06 12:00:13:722
0.431,1.5467,6.3351,-0.7444,2.5919,9.4286,1.1339,-0.901,-2.5688,0.2236,-0.632,0.3065,743,8.72,47.03,-1.19,349.01,-15.33,4.51,5,39.558,12.922314,77.68371,829.5,NaN,,23.618,,0 / 31,4221,2018-11-06 12:00:13:732
0.8643,1.6496,5.0159,-0.5936,2.6328,9.4279,1.4237,-0.8318,-3.8698,0.1809,-0.7363,0.1733,743,8.72,47.03,-1.19,349.01,-15.33,4.51,5,39.558,12.922314,77.68371,829.5,NaN,,23.618,,0 / 31,4232,2018-11-06 12:00:13:743
1.063,1.822,4.5801,-0.491,2.6573,9.427,1.525,-0.6781,-4.289,0.1554,-0.6405,0.0071,743,8.27,48.08,-1.19,349.01,-15.33,4.51,5,39.558,12.922314,77.68371,829.5,NaN,,23.618,,0 / 31,4241,2018-11-06 12:00:13:752
1.063,1.822,4.5801,-0.491,2.6573,9.427,1.525,-0.6781,-4.289,0.1554,-0.6405,0.0071,743,8.27,48.08,-1.19,349.01,-15.33,4.51,5,39.558,12.922314,77.68371,829.5,NaN,,23.618,,0 / 31,4250,2018-11-06 12:00:13:761
0.9744,2.1332,4.5107,-0.4216,2.6832,9.423,1.3704,-0.3867,-4.3389,0.1884,-0.4136,-0.1761,743,9.17,46.88,-1.04,348.9,-15.88,2.56,5,39.558,12.922314,77.68371,829.5,NaN,,23.618,,0 / 31,4260,2018-11-06 12:00:13:771
0.5195,2.5977,4.5681,-0.395,2.7303,9.4106,0.8897,0.0394,-4.2496,0.2619,-0.0919,-0.3497,743,9.17,46.88,-1.04,348.9,-15.88,2.56,5,39.558,12.922314,77.68371,829.5,NaN,,23.618,,0 / 31,4271,2018-11-06 12:00:13:782
0.5195,2.5977,4.5681,-0.395,2.7303,9.4106,0.8897,0.0394,-4.2496,0.2619,-0.0919,-0.3497,743,9.62,46.88,-1.79,348.9,-15.88,2.56,5,39.558,12.922314,77.68371,829.5,NaN,,23.618,,0 / 31,4281,2018-11-06 12:00:13:792
0.2227,2.8419,4.7884,-0.4091,2.7693,9.3986,0.6054,0.2512,-4.004,0.2502,0.0392,-0.4019,743,9.62,46.88,-1.79,348.9,-15.88,2.56,5,39.558,12.922314,77.68371,829.5,NaN,,23.618,,0 / 31,4291,2018-11-06 12:00:13:802
0.2227,2.8419,4.7884,-0.4091,2.7693,9.3986,0.6054,0.2512,-4.004,0.1948,0.0797,-0.4328,743,8.27,45.98,-2.99,350.11,-16.4,2.49,5,39.558,12.922314,77.68371,829.5,NaN,,23.618,,0 / 31,4300,2018-11-06 12:00:13:811
-0.4262,3.158,5.7341,-0.4449,2.811,9.3846,-0.0107,0.5329,-3.0299,0.1873,0.0637,-0.4307,678,8.27,45.98,-2.99,350.11,-16.4,2.49,5,39.558,12.922314,77.68371,829.5,NaN,,23.618,,0 / 31,4311,2018-11-06 12:00:13:822
-0.4262,3.158,5.7341,-0.4449,2.811,9.3846,-0.0107,0.5329,-3.0299,0.1873,0.0637,-0.4307,678,7.37,46.88,-2.39,350.11,-16.4,2.49,5,39.558,12.922314,77.68371,829.5,NaN,,23.618,,0 / 31,4321,2018-11-06 12:00:13:832
-1.0271,3.3447,6.2297,-0.4701,2.8391,9.3749,-0.5885,0.6958,-2.5169,0.182,0.02,-0.386,678,7.37,46.88,-2.39,350.11,-16.4,2.49,5,39.558,12.922314,77.68371,829.5,NaN,,23.618,,0 / 31,4331,2018-11-06 12:00:13:842
-1.5826,3.462,6.45,-0.4802,2.8652,9.3664,-1.1349,0.7909,-2.2818,0.1501,-0.0887,-0.2443,678,9.77,46.73,-1.94,347.79,-16.99,2.93,5,39.558,12.922314,77.68371,829.5,NaN,,23.618,,0 / 31,4341,2018-11-06 12:00:13:852
-1.5826,3.462,6.45,-0.4802,2.8652,9.3664,-1.1349,0.7909,-2.2818,0.1501,-0.0887,-0.2443,678,9.77,46.73,-1.94,347.79,-16.99,2.93,5,39.558,12.922314,77.68371,829.5,NaN,,23.618,,0 / 31,4351,2018-11-06 12:00:13:862
-1.7717,3.5913,6.711,-0.4532,2.8849,9.3617,-1.3497,0.9044,-2.0081,0.0105,-0.29,0.0412,678,8.57,46.13,-3.59,347.79,-16.99,2.93,5,39.558,12.922314,77.68371,829.5,NaN,,23.618,,0 / 31,4361,2018-11-06 12:00:13:872
-1.7717,3.5913,6.711,-0.4532,2.8849,9.3617,-1.3497,0.9044,-2.0081,0.0105,-0.29,0.0412,678,8.57,46.13,-3.59,347.79,-16.99,2.93,5,39.558,12.922314,77.68371,829.5,NaN,,23.618,,0 / 31,4371,2018-11-06 12:00:13:882
-1.3216,3.5506,7.1467,-0.3945,2.8816,9.3654,-0.9544,0.8683,-1.5709,-0.1067,-0.4498,0.2617,678,9.02,47.33,-3.29,347.79,-16.99,2.93,5,39.558,12.922314,77.68371,829.5,NaN,,23.618,,0 / 31,4381,2018-11-06 12:00:13:892
-0.4477,3.4141,7.9511,-0.2751,2.8601,9.3763,-0.1918,0.753,-0.773,-0.1759,-0.5968,0.4322,678,9.02,47.33,-3.29,347.79,-16.99,2.93,5,39.119,12.922314,77.68371,829.5,NaN,,23.618,,0 / 31,4391,2018-11-06 12:00:13:902
-0.4477,3.4141,7.9511,-0.2751,2.8601,9.3763,-0.1918,0.753,-0.773,-0.1759,-0.5968,0.4322,678,8.87,46.88,-3.89,349.12,-16.96,1.68,5,39.119,12.922314,77.68371,829.5,NaN,,23.618,,0 / 31,4400,2018-11-06 12:00:13:911
0.1389,3.2274,8.3893,-0.1671,2.8412,9.3846,0.2944,0.5841,-0.3416,-0.1589,-0.6511,0.4375,678,8.87,46.88,-3.89,349.12,-16.96,1.68,5,39.119,12.922314,77.68371,829.5,NaN,,23.618,,0 / 31,4410,2018-11-06 12:00:13:921
0.1389,3.2274,8.3893,-0.1671,2.8412,9.3846,0.2944,0.5841,-0.3416,-0.1589,-0.6511,0.4375,678,9.47,48.37,-2.99,349.12,-16.96,1.68,5,39.119,12.922314,77.68371,829.5,NaN,,23.618,,0 / 31,4421,2018-11-06 12:00:13:932
0.6201,3.0981,8.7795,-0.0605,2.8255,9.3906,0.6764,0.4694,0.0429,-0.1216,-0.6277,0.3608,678,9.47,48.37,-2.99,349.12,-16.96,1.68,5,39.119,12.922314,77.68371,829.5,NaN,,23.618,,0 / 31,4430,2018-11-06 12:00:13:941
1.2498,3.0622,9.4308,0.0652,2.8114,9.3948,1.1891,0.4457,0.6875,-0.0619,-0.5499,0.1435,678,10.82,46.73,-2.69,346.54,-16.75,0.37,5,39.119,12.922314,77.68371,829.5,NaN,,23.618,,0 / 31,4440,2018-11-06 12:00:13:951
1.2498,3.0622,9.4308,0.0652,2.8114,9.3948,1.1891,0.4457,0.6875,-0.0619,-0.5499,0.1435,678,10.82,46.73,-2.69,346.54,-16.75,0.37,5,39.119,12.922314,77.68371,829.5,NaN,,23.618,,0 / 31,4451,2018-11-06 12:00:13:962
1.4509,2.9521,9.8904,0.1363,2.8068,9.3954,1.324,0.3388,1.1428,-0.0278,-0.4349,-0.0664,559,9.17,47.18,-4.94,346.54,-16.75,0.37,5,39.119,12.922314,77.68371,829.5,NaN,,23.618,,0 / 31,4461,2018-11-06 12:00:13:972
1.4509,2.9521,9.8904,0.1363,2.8068,9.3954,1.324,0.3388,1.1428,-0.0278,-0.4349,-0.0664,559,9.17,47.18,-4.94,346.54,-16.75,0.37,5,39.119,12.922314,77.68371,829.5,NaN,,23.618,,0 / 31,4470,2018-11-06 12:00:13:981
0.9912,2.7773,10.8314,0.1962,2.8028,9.3955,0.8083,0.1652,2.0754,-0.0151,-0.3326,-0.3274,559,9.77,47.03,-4.04,347.67,-16.61,-1.2,5,39.119,12.922314,77.68371,829.5,NaN,,23.618,,0 / 31,4480,2018-11-06 12:00:13:991
0.249,2.4086,10.9391,0.2236,2.7986,9.3962,0.0404,-0.2018,2.175,-0.0332,-0.3017,-0.42,559,9.77,47.03,-4.04,347.67,-16.61,-1.2,5,39.119,12.922314,77.68371,829.5,NaN,,23.618,,0 / 31,4491,2018-11-06 12:00:14:002
0.249,2.4086,10.9391,0.2236,2.7986,9.3962,0.0404,-0.2018,2.175,-0.2004,-0.192,-0.4424,559,9.47,49.13,-4.04,347.67,-16.61,-1.2,5,39.119,12.922314,77.68371,829.5,NaN,,23.618,,0 / 31,4501,2018-11-06 12:00:14:012
-0.2921,2.4349,11.1809,0.2365,2.765,9.4058,-0.5129,-0.147,2.3981,-0.373,-0.045,-0.4509,559,9.47,49.13,-4.04,347.67,-16.61,-1.2,5,39.119,12.922314,77.68371,829.5,NaN,,23.618,,0 / 31,4511,2018-11-06 12:00:14:022
-0.9098,2.7605,12.6103,0.2097,2.7008,9.4251,-1.1058,0.2354,3.7981,-0.5232,0.1169,-0.4307,559,11.27,46.73,-5.84,346.58,-16.38,-1.44,5,39.119,12.922314,77.68371,829.5,NaN,,23.618,,0 / 31,4520,2018-11-06 12:00:14:031
-0.9098,2.7605,12.6103,0.2097,2.7008,9.4251,-1.1058,0.2354,3.7981,-0.5232,0.1169,-0.4307,559,11.27,46.73,-5.84,346.58,-16.38,-1.44,5,39.119,12.922314,77.68371,829.5,NaN,,23.618,,0 / 31,4530,2018-11-06 12:00:14:041
-0.6464,3.2609,14.5615,0.1533,2.6183,9.4494,-0.7901,0.8078,5.7083,-0.5786,0.3289,-0.3582,559,9.02,48.37,-4.34,346.58,-16.38,-1.44,5,39.119,12.922314,77.68371,829.5,NaN,,23.618,,0 / 31,4541,2018-11-06 12:00:14:052
-0.6464,3.2609,14.5615,0.1533,2.6183,9.4494,-0.7901,0.8078,5.7083,-0.5786,0.3289,-0.3582,559,9.02,48.37,-4.34,346.58,-16.38,-1.44,5,39.119,12.922314,77.68371,829.5,NaN,,23.618,,0 / 31,4551,2018-11-06 12:00:14:062
0.3448,3.3926,16.0316,0.0605,2.5405,9.4717,0.2878,1.0035,7.1246,-0.2473,0.4216,-0.2954,388,8.72,48.08,-5.09,349.27,-15.01,-0.37,5,39.119,12.922314,77.68371,829.5,NaN,,23.618,,0 / 31,4561,2018-11-06 12:00:14:072
0.7111,2.6336,15.2846,0.0047,2.5362,9.473,0.7066,0.2422,6.3523,0.1202,0.2767,-0.2816,388,8.72,48.08,-5.09,349.27,-15.01,-0.37,5,39.119,12.922314,77.68371,829.5,NaN,,23.618,,0 / 31,4570,2018-11-06 12:00:14:081
0.7111,2.6336,15.2846,0.0047,2.5362,9.473,0.7066,0.2422,6.3523,0.1202,0.2767,-0.2816,388,9.47,48.37,-5.84,349.27,-15.01,-0.37,5,39.119,12.922314,77.68371,829.5,NaN,,23.618,,0 / 31,4581,2018-11-06 12:00:14:092
1.0367,1.8842,13.4027,-0.0148,2.5674,9.4646,1.0506,-0.5414,4.4608,0.3162,-0.0216,-0.3433,388,9.47,48.37,-5.84,349.27,-15.01,-0.37,5,39.119,12.922314,77.68371,829.5,NaN,,23.618,,0 / 31,4590,2018-11-06 12:00:14:101
1.0367,1.8842,13.4027,-0.0148,2.5674,9.4646,1.0506,-0.5414,4.4608,0.3162,-0.0216,-0.3433,388,9.47,47.33,-4.04,349.03,-15.18,0.09,5,39.119,12.922314,77.68371,829.5,NaN,,23.618,,0 / 31,4601,2018-11-06 12:00:14:112
0.8811,1.6712,11.3844,0.0036,2.6179,9.4508,0.8777,-0.8059,2.4419,0.2885,-0.2367,-0.4914,388,9.47,47.33,-4.04,349.03,-15.18,0.09,5,39.119,12.922314,77.68371,829.5,NaN,,23.618,,0 / 31,4611,2018-11-06 12:00:14:122
0.8811,1.6712,11.3844,0.0036,2.6179,9.4508,0.8777,-0.8059,2.4419,0.2885,-0.2367,-0.4914,388,9.47,47.33,-4.04,349.03,-15.18,0.09,5,39.119,12.922314,77.68371,829.5,NaN,,23.618,,0 / 31,4621,2018-11-06 12:00:14:132
0.3376,1.6903,10.5441,0.0118,2.6459,9.443,0.3264,-0.8149,1.6032,0.2065,-0.1441,-0.5308,388,10.07,49.13,-5.84,349.03,-15.18,0.09,5,39.119,12.922314,77.68371,829.5,NaN,,23.618,,0 / 31,4631,2018-11-06 12:00:14:142
-0.3807,1.6376,10.2687,-0.0278,2.664,9.4378,-0.3543,-0.8861,1.3276,0.0861,0.2064,-0.4978,388,9.17,48.68,-5.99,349.54,-15.65,-0.07,5,39.119,12.922314,77.68371,829.5,NaN,,23.618,,0 / 31,4640,2018-11-06 12:00:14:151
-0.3807,1.6376,10.2687,-0.0278,2.664,9.4378,-0.3543,-0.8861,1.3276,0.0861,0.2064,-0.4978,388,9.17,48.68,-5.99,349.54,-15.65,-0.07,5,39.119,12.922314,77.68371,829.5,NaN,,23.618,,0 / 31,4651,2018-11-06 12:00:14:162
-0.7973,1.5754,10.4052,-0.1014,2.6655,9.4369,-0.7012,-0.951,1.4609,0.0361,0.4653,-0.435,388,8.87,48.23,-7.04,349.54,-15.65,-0.07,5,39.119,12.922314,77.68371,829.5,NaN,,23.618,,0 / 31,4661,2018-11-06 12:00:14:172
-0.7973,1.5754,10.4052,-0.1014,2.6655,9.4369,-0.7012,-0.951,1.4609,0.0467,0.5995,-0.3316,388,8.87,48.23,-7.04,349.54,-15.65,-0.07,5,39.119,12.922314,77.68371,829.5,NaN,,23.618,,0 / 31,4670,2018-11-06 12:00:14:181
-1.0798,1.6999,10.3094,-0.2309,2.6662,9.4344,-0.8608,-0.8288,1.3617,0.067,0.5963,-0.2357,388,8.72,47.78,-5.84,349.53,-15.78,1.4,5,39.119,12.922314,77.68371,829.5,NaN,,23.618,,0 / 31,4680,2018-11-06 12:00:14:191
-0.9936,1.8914,9.584,-0.3201,2.6713,9.4304,-0.6899,-0.6428,0.6376,0.0659,0.5367,-0.1303,388,8.72,47.78,-5.84,349.53,-15.78,1.4,5,39.119,12.922314,77.68371,829.5,NaN,,23.618,,0 / 31,4691,2018-11-06 12:00:14:202
-0.9936,1.8914,9.584,-0.3201,2.6713,9.4304,-0.6899,-0.6428,0.6376,0.0659,0.5367,-0.1303,388,8.87,47.63,-6.74,349.53,-15.78,1.4,5,39.119,12.922314,77.68371,829.5,NaN,,23.618,,0 / 31,4701,2018-11-06 12:00:14:212
-0.656,1.9728,8.7652,-0.3837,2.6759,9.4267,-0.292,-0.5657,-0.1776,0.0403,0.3779,-0.0035,336,8.87,47.63,-6.74,349.53,-15.78,1.4,5,40.652,12.922314,77.68371,829.5,NaN,,23.618,,0 / 31,4710,2018-11-06 12:00:14:221
-0.656,1.9728,8.7652,-0.3837,2.6759,9.4267,-0.292,-0.5657,-0.1776,0.0403,0.3779,-0.0035,336,9.17,46.88,-5.99,349.45,-15.83,2.33,5,40.652,12.922314,77.68371,829.5,NaN,,23.618,,0 / 31,4720,2018-11-06 12:00:14:231
-0.1484,1.8795,7.9224,-0.4267,2.6772,9.4245,0.2562,-0.6591,-1.0141,0.003,0.1808,0.0987,336,9.17,46.88,-5.99,349.45,-15.83,2.33,5,40.652,12.922314,77.68371,829.5,NaN,,23.618,,0 / 31,4731,2018-11-06 12:00:14:242
0.2346,1.7693,7.2975,-0.4334,2.6769,9.4243,0.6454,-0.7674,-1.633,0.003,0.0456,0.1105,336,10.07,48.08,-7.64,349.45,-15.83,2.33,5,40.652,12.922314,77.68371,829.5,NaN,,23.618,,0 / 31,4741,2018-11-06 12:00:14:252
0.2346,1.7693,7.2975,-0.4334,2.6769,9.4243,0.6454,-0.7674,-1.633,0.003,0.0456,0.1105,336,10.07,48.08,-7.64,349.45,-15.83,2.33,5,40.652,12.922314,77.68371,829.5,NaN,,23.618,,0 / 31,4751,2018-11-06 12:00:14:262
0.6919,1.5826,6.7516,-0.4232,2.676,9.425,1.0926,-0.951,-2.1717,-0.0012,-0.0642,0.038,336,10.07,47.78,-7.64,348.76,-15.84,2.57,5,40.652,12.922314,77.68371,829.5,NaN,,23.618,,0 / 31,4761,2018-11-06 12:00:14:272
0.6919,1.5826,6.7516,-0.4232,2.676,9.425,1.0926,-0.951,-2.1717,-0.0012,-0.0642,0.038,336,10.07,47.78,-7.64,348.76,-15.84,2.57,5,40.652,12.922314,77.68371,829.5,NaN,,23.618,,0 / 31,4770,2018-11-06 12:00:14:281
0.8882,1.6496,6.5817,-0.4025,2.6796,9.4249,1.2688,-0.884,-2.3295,0.0648,-0.1057,-0.1782,336,9.77,48.37,-7.94,348.76,-15.84,2.57,5,40.652,12.922314,77.68371,829.5,NaN,,23.618,,0 / 31,4780,2018-11-06 12:00:14:291
0.6393,1.8316,6.347,-0.3972,2.6975,9.42,1.0144,-0.7162,-2.5501,0.1873,-0.0823,-0.3497,336,9.77,48.37,-7.94,348.76,-15.84,2.57,5,40.652,12.922314,77.68371,829.5,NaN,,23.618,,0 / 31,4791,2018-11-06 12:00:14:302
0.6393,1.8316,6.347,-0.3972,2.6975,9.42,1.0144,-0.7162,-2.5501,0.1873,-0.0823,-0.3497,336,9.62,47.18,-9.29,348.62,-15.97,2.41,5,40.652,12.922314,77.68371,829.5,NaN,,23.618,,0 / 31,4801,2018-11-06 12:00:14:312
-0.0335,2.083,5.9113,-0.4098,2.7508,9.404,0.353,-0.5112,-2.9571,0.3642,-0.0216,-0.4839,336,9.62,47.18,-9.29,348.62,-15.97,2.41,5,40.652,12.922314,77.68371,829.5,NaN,,23.618,,0 / 31,4811,2018-11-06 12:00:14:322
-0.0335,2.083,5.9113,-0.4098,2.7508,9.404,0.353,-0.5112,-2.9571,0.3642,-0.0216,-0.4839,336,9.17,48.68,-11.39,348.62,-15.97,2.41,5,40.652,12.922314,77.68371,829.5,NaN,,23.618,,0 / 31,4821,2018-11-06 12:00:14:332
-0.4262,2.2529,5.466,-0.4307,2.8088,9.3859,-0.0205,-0.3924,-3.3738,0.4515,0.0147,-0.4978,336,9.17,48.68,-11.39,348.62,-15.97,2.41,5,40.652,12.922314,77.68371,829.5,NaN,,23.618,,0 / 31,4831,2018-11-06 12:00:14:342
-0.6369,2.375,4.9584,-0.4584,2.8735,9.365,-0.2058,-0.3272,-3.8486,0.4664,0.0679,-0.4413,336,8.12,47.18,-9.59,351.11,-17.04,2.8,5,40.652,12.922314,77.68371,829.5,NaN,,23.618,,0 / 31,4840,2018-11-06 12:00:14:351
-0.6369,2.375,4.9584,-0.4584,2.8735,9.365,-0.2058,-0.3272,-3.8486,0.4664,0.0679,-0.4413,336,8.12,47.18,-9.59,351.11,-17.04,2.8,5,40.652,12.922314,77.68371,829.5,NaN,,23.618,,0 / 31,4851,2018-11-06 12:00:14:362
-0.7207,2.5546,4.774,-0.5064,2.9485,9.3392,-0.2454,-0.2124,-3.9903,0.3439,0.1734,-0.3125,317,9.47,48.08,-9.44,351.11,-17.04,2.8,5,40.652,12.922314,77.68371,829.5,NaN,,23.618,,0 / 31,4861,2018-11-06 12:00:14:372
-0.7207,2.5546,4.774,-0.5064,2.9485,9.3392,-0.2454,-0.2124,-3.9903,0.3439,0.1734,-0.3125,317,9.47,48.08,-9.44,351.11,-17.04,2.8,5,40.652,12.922314,77.68371,829.5,NaN,,23.618,,0 / 31,4870,2018-11-06 12:00:14:381
-0.8404,2.7677,5.1715,-0.5475,2.9844,9.3255,-0.3273,-0.0289,-3.5672,0.1927,0.2224,-0.1985,317,9.02,47.78,-10.79,350.38,-17.72,3.36,5,40.652,12.922314,77.68371,829.5,NaN,,23.618,,0 / 31,4880,2018-11-06 12:00:14:391
-0.814,3.0382,6.5003,-0.6017,3.0017,9.3165,-0.2509,0.2294,-2.2178,0.0148,0.2671,-0.0152,317,9.02,47.78,-10.79,350.38,-17.72,3.36,5,40.652,12.922314,77.68371,829.5,NaN,,23.618,,0 / 31,4891,2018-11-06 12:00:14:402
-0.814,3.0382,6.5003,-0.6017,3.0017,9.3165,-0.2509,0.2294,-2.2178,0.0148,0.2671,-0.0152,317,9.47,47.03,-11.54,350.38,-17.72,3.36,5,40.652,12.922314,77.68371,829.5,NaN,,23.618,,0 / 31,4901,2018-11-06 12:00:14:412
-0.8643,3.1556,7.4819,-0.634,3.0043,9.3136,-0.2714,0.3457,-1.2287,-0.0065,0.232,0.1126,317,9.47,47.03,-11.54,350.38,-17.72,3.36,5,40.652,12.922314,77.68371,829.5,NaN,,23.618,,0 / 31,4911,2018-11-06 12:00:14:422
-0.8643,3.1556,7.4819,-0.634,3.0043,9.3136,-0.2714,0.3457,-1.2287,-0.0065,0.232,0.1126,317,9.47,47.03,-11.54,350.38,-17.72,3.36,5,40.652,12.922314,77.68371,829.5,NaN,,23.618,,0 / 31,4921,2018-11-06 12:00:14:432
-0.8595,3.134,8.3151,-0.6512,3.0108,9.3103,-0.2506,0.3187,-0.3906,0.0371,0.1542,0.2521,317,9.17,46.13,-10.94,350.13,-17.84,3.89,5,40.652,12.922314,77.68371,829.5,NaN,,23.618,,0 / 31,4931,2018-11-06 12:00:14:442
-0.6105,2.8707,8.6383,-0.6435,3.0334,9.3035,-0.0089,0.0343,-0.0607,0.1223,0.02,0.4023,317,9.02,46.28,-10.49,350.13,-17.84,3.89,5,40.652,12.922314,77.68371,829.5,NaN,,23.618,,0 / 31,4941,2018-11-06 12:00:14:452
-0.6105,2.8707,8.6383,-0.6435,3.0334,9.3035,-0.0089,0.0343,-0.0607,0.1223,0.02,0.4023,317,9.02,46.28,-10.49,350.13,-17.84,3.89,5,40.652,12.922314,77.68371,829.5,NaN,,23.618,,0 / 31,4951,2018-11-06 12:00:14:462
-0.6081,2.8275,8.7341,-0.6194,3.0562,9.2977,-0.029,-0.0301,0.0405,0.1394,-0.0471,0.4545,329,9.47,47.33,-12.29,350.44,-18.16,3.81,5,40.652,12.922314,77.68371,829.5,NaN,,23.618,,0 / 31,4961,2018-11-06 12:00:14:472
-0.6081,2.8275,8.7341,-0.6194,3.0562,9.2977,-0.029,-0.0301,0.0405,0.1394,-0.0471,0.4545,329,9.47,47.33,-12.29,350.44,-18.16,3.81,5,40.652,12.922314,77.68371,829.5,NaN,,23.618,,0 / 31,4970,2018-11-06 12:00:14:481
-0.668,2.5474,9.1435,-0.5854,3.0859,9.29,-0.1205,-0.3383,0.4562,0.1426,0.0051,0.5004,329,11.42,45.38,-12.44,350.44,-18.16,3.81,5,40.652,12.922314,77.68371,829.5,NaN,,23.618,,0 / 31,4981,2018-11-06 12:00:14:492
-0.7015,2.2673,9.56,-0.57,3.1094,9.2832,-0.1684,-0.641,0.8772,0.1692,0.0818,0.5462,329,11.42,45.38,-12.44,350.44,-18.16,3.81,5,40.652,12.922314,77.68371,829.5,NaN,,23.618,,0 / 31,4991,2018-11-06 12:00:14:502
-0.7015,2.2673,9.56,-0.57,3.1094,9.2832,-0.1684,-0.641,0.8772,0.1692,0.0818,0.5462,329,12.77,46.88,-13.19,346.03,-18.49,3.51,5,40.652,12.922314,77.68371,829.5,NaN,,23.618,,0 / 31,5001,2018-11-06 12:00:14:512
-0.5076,1.9058,9.4882,-0.5575,3.1331,9.2759,0.014,-1.0254,0.8102,0.1607,0.1095,0.6037,329,12.77,46.88,-13.19,346.03,-18.49,3.51,5,40.652,12.922314,77.68371,829.5,NaN,,23.618,,0 / 31,5011,2018-11-06 12:00:14:522
-0.5076,1.9058,9.4882,-0.5575,3.1331,9.2759,0.014,-1.0254,0.8102,0.1607,0.1095,0.6037,329,12.77,46.88,-13.19,346.03,-18.49,3.51,5,40.652,12.922314,77.68371,829.5,NaN,,23.618,,0 / 31,5021,2018-11-06 12:00:14:532
-0.4956,1.6017,9.4667,-0.5327,3.1448,9.2734,0.0028,-1.3409,0.7893,-0.014,0.0413,0.6111,329,12.47,46.43,-13.49,346.03,-18.49,3.51,5,40.652,12.922314,77.68371,829.5,NaN,,23.618,,0 / 31,5030,2018-11-06 12:00:14:541
-0.8452,1.4389,9.8545,-0.508,3.1186,9.2837,-0.3697,-1.4798,1.1659,-0.2707,0.0242,0.6197,329,13.67,44.92,-12.89,344.25,-18.54,3.13,5,38.981,12.922314,77.68371,829.5,NaN,,23.618,,0 / 31,5041,2018-11-06 12:00:14:552
-0.8452,1.4389,9.8545,-0.508,3.1186,9.2837,-0.3697,-1.4798,1.1659,-0.4572,0.0956,0.593,329,13.67,44.92,-12.89,344.25,-18.54,3.13,5,38.981,12.922314,77.68371,829.5,NaN,,23.618,,0 / 31,5051,2018-11-06 12:00:14:562
-1.2785,1.494,11.1689,-0.4903,3.0367,9.3117,-0.8192,-1.3503,2.4471,-0.4966,0.1936,0.5504,412,13.52,45.38,-13.79,344.25,-18.54,3.13,5,38.981,12.922314,77.68371,829.5,NaN,,23.618,,0 / 31,5061,2018-11-06 12:00:14:572
-1.2785,1.494,11.1689,-0.4903,3.0367,9.3117,-0.8192,-1.3503,2.4471,-0.4966,0.1936,0.5504,412,13.52,45.38,-13.79,344.25,-18.54,3.13,5,38.981,12.922314,77.68371,829.5,NaN,,23.618,,0 / 31,5070,2018-11-06 12:00:14:581
-1.4198,1.7909,11.6646,-0.5074,2.9641,9.3342,-0.944,-0.9881,2.9133,-0.504,0.3502,0.5078,412,13.97,47.18,-11.39,344.53,-17.59,3.11,5,38.981,12.922314,77.68371,829.5,NaN,,23.618,,0 / 31,5080,2018-11-06 12:00:14:591
-0.7685,3.0334,12.1937,-0.5583,2.8957,9.3527,-0.2444,0.3152,3.4142,-0.4795,0.5729,0.4673,412,13.97,47.18,-11.39,344.53,-17.59,3.11,5,38.981,12.922314,77.68371,829.5,NaN,,23.618,,0 / 31,5091,2018-11-06 12:00:14:602
-0.7685,3.0334,12.1937,-0.6204,2.8434,9.3649,-0.2444,0.3152,3.4142,-0.4795,0.5729,0.4673,412,15.92,44.92,-12.59,344.53,-17.59,3.11,5,38.981,12.922314,77.68371,829.5,NaN,,23.618,,0 / 31,5101,2018-11-06 12:00:14:612
0.0694,4.051,12.9071,-0.6204,2.8434,9.3649,0.6695,1.3867,4.095,-0.2814,0.5462,0.4631,412,15.92,44.92,-12.59,344.53,-17.59,3.11,5,38.981,12.922314,77.68371,829.5,NaN,,23.618,,0 / 31,5111,2018-11-06 12:00:14:622
0.0694,4.051,12.9071,-0.6608,2.8204,9.3691,0.6695,1.3867,4.095,-0.2814,0.5462,0.4631,412,15.92,44.92,-12.59,344.53,-17.59,3.11,5,38.981,12.922314,77.68371,829.5,NaN,,23.618,,0 / 31,5121,2018-11-06 12:00:14:632
0.249,3.6129,12.5983,-0.6582,2.826,9.3675,0.8758,0.9558,3.7699,-0.0428,0.265,0.4599,412,15.02,44.78,-12.14,343.23,-16.71,4.03,5,38.981,12.922314,77.68371,829.5,NaN,,23.618,,0 / 31,5130,2018-11-06 12:00:14:641
-0.0886,2.4014,11.0492,-0.6324,2.8383,9.3656,0.5082,-0.2772,2.2109,0.1447,-0.2058,0.3342,412,15.62,44.48,-11.84,343.23,-16.71,4.03,5,38.981,12.922314,77.68371,829.5,NaN,,23.618,,0 / 31,5141,2018-11-06 12:00:14:652
-0.0886,2.4014,11.0492,-0.6324,2.8383,9.3656,0.5082,-0.2772,2.2109,0.1447,-0.2058,0.3342,412,15.62,44.48,-11.84,343.23,-16.71,4.03,5,38.981,12.922314,77.68371,829.5,NaN,,23.618,,0 / 31,5150,2018-11-06 12:00:14:661
-0.5794,1.6568,9.9455,-0.575,2.8591,9.363,-0.0366,-1.0425,1.1056,0.1756,-0.3752,0.1722,539,16.22,44.92,-12.59,342.15,-16.95,3.51,5,38.981,12.922314,77.68371,829.5,NaN,,23.618,,0 / 31,5160,2018-11-06 12:00:14:671
-0.5794,1.6568,9.9455,-0.575,2.8591,9.363,-0.0366,-1.0425,1.1056,0.1756,-0.3752,0.1722,539,16.22,44.92,-12.59,342.15,-16.95,3.51,5,38.981,12.922314,77.68371,829.5,NaN,,23.618,,0 / 31,5171,2018-11-06 12:00:14:682
-1.0463,1.2354,9.1123,-0.531,2.8787,9.3596,-0.5449,-1.4826,0.2752,0.1756,-0.2463,-3.00E-04,539,17.87,44.33,-13.19,342.15,-16.95,3.51,5,38.981,12.922314,77.68371,829.5,NaN,,23.618,,0 / 31,5181,2018-11-06 12:00:14:692
-2.1859,1.1612,8.3462,-0.5535,2.8897,9.3549,-1.6635,-1.5662,-0.4833,0.0403,0.2512,-0.1782,539,17.87,44.33,-13.19,342.15,-16.95,3.51,5,38.981,12.922314,77.68371,829.5,NaN,,23.618,,0 / 31,5191,2018-11-06 12:00:14:702
-2.1859,1.1612,8.3462,-0.5535,2.8897,9.3549,-1.6635,-1.5662,-0.4833,0.0403,0.2512,-0.1782,539,17.12,44.03,-13.79,340.84,-17.14,3.39,5,38.981,12.922314,77.68371,829.5,NaN,,23.618,,0 / 31,5201,2018-11-06 12:00:14:712
-2.794,1.7549,8.5784,-0.6358,2.8709,9.3554,-2.1941,-0.9541,-0.2495,-0.1674,0.575,-0.1825,539,17.12,44.03,-13.79,340.84,-17.14,3.39,5,38.981,12.922314,77.68371,829.5,NaN,,23.618,,0 / 31,5212,2018-11-06 12:00:14:723
-2.794,1.7549,8.5784,-0.6358,2.8709,9.3554,-2.1941,-0.9541,-0.2495,-0.1674,0.575,-0.1825,539,17.12,44.03,-13.79,340.84,-17.14,3.39,5,38.981,12.922314,77.68371,829.5,NaN,,23.618,,0 / 31,5220,2018-11-06 12:00:14:731
-2.964,2.7629,9.5481,-0.7875,2.8086,9.3628,-2.2207,0.1121,0.711,-0.3517,0.7689,-0.0664,539,18.02,44.18,-12.59,340.84,-17.14,3.39,5,38.981,12.922314,77.68371,829.5,NaN,,23.618,,0 / 31,5230,2018-11-06 12:00:14:741
-2.5211,3.0861,10.0149,-0.8889,2.7496,9.3712,-1.6816,0.4896,1.1654,-0.455,0.6623,0.2053,539,17.42,44.18,-12.29,341.07,-16.28,5.42,5,38.981,12.922314,77.68371,829.5,NaN,,23.618,,0 / 31,5241,2018-11-06 12:00:14:752
-2.5211,3.0861,10.0149,-0.8889,2.7496,9.3712,-1.6816,0.4896,1.1654,-0.438,0.3225,0.4034,539,17.42,44.18,-12.29,341.07,-16.28,5.42,5,38.981,12.922314,77.68371,829.5,NaN,,23.618,,0 / 31,5251,2018-11-06 12:00:14:762
-1.5778,2.9904,9.9072,-0.944,2.6761,9.3871,-0.9658,0.5034,1.1568,-0.3815,0.0019,0.5004,539,17.42,44.48,-12.59,341.07,-16.28,5.42,5,38.981,12.922314,77.68371,829.5,NaN,,23.618,,0 / 31,5260,2018-11-06 12:00:14:771
-1.5778,2.9904,9.9072,-0.944,2.6761,9.3871,-0.9658,0.5034,1.1568,-0.3815,0.0019,0.5004,539,17.42,44.48,-12.59,341.07,-16.28,5.42,5,38.981,12.922314,77.68371,829.5,NaN,,23.618,,0 / 31,5270,2018-11-06 12:00:14:781
-0.8787,2.6959,9.1051,-0.901,2.6368,9.4024,-0.027,0.2034,0.2174,-0.2952,-0.3284,0.5664,539,19.22,42.68,-12.89,338.72,-15.6,5.47,5,38.981,12.922314,77.68371,829.5,NaN,,23.618,,0 / 31,5281,2018-11-06 12:00:14:792
-0.8787,2.6959,9.1051,-0.901,2.6368,9.4024,-0.027,0.2034,0.2174,-0.2952,-0.3284,0.5664,539,19.22,42.68,-12.89,338.72,-15.6,5.47,5,38.981,12.922314,77.68371,829.5,NaN,,23.618,,0 / 31,5291,2018-11-06 12:00:14:802
-0.1245,2.4086,7.6734,-0.7928,2.6155,9.4181,0.6247,-0.0631,-1.2266,-0.1759,-0.7204,0.5973,539,19.22,42.68,-12.89,338.72,-15.6,5.47,5,38.981,12.922314,77.68371,829.5,NaN,,23.618,,0 / 31,5301,2018-11-06 12:00:14:812
0.8308,2.1476,5.794,-0.5996,2.6077,9.4346,1.3967,-0.3133,-3.1096,-0.047,-0.9142,0.4577,613,19.52,41.33,-10.04,338.72,-15.6,5.47,5,38.981,12.922314,77.68371,829.5,NaN,,23.618,,0 / 31,5310,2018-11-06 12:00:14:821
0.8308,2.1476,5.794,-0.5996,2.6077,9.4346,1.3967,-0.3133,-3.1096,-0.047,-0.9142,0.4577,613,19.52,41.33,-10.04,338.72,-15.6,5.47,5,38.981,12.922314,77.68371,829.5,NaN,,23.618,,0 / 31,5320,2018-11-06 12:00:14:831
1.2665,2.2434,4.8674,-0.4601,2.6139,9.4407,1.7,-0.2197,-4.0283,0.035,-0.8386,0.2223,613,19.82,42.08,-11.54,336.18,-15.46,2.79,5,38.981,12.922314,77.68371,829.5,NaN,,23.618,,0 / 31,5330,2018-11-06 12:00:14:841
1.2665,2.2434,4.8674,-0.4601,2.6139,9.4407,1.7,-0.2197,-4.0283,0.035,-0.8386,0.2223,613,19.82,42.08,-11.54,336.18,-15.46,2.79,5,38.981,12.922314,77.68371,829.5,NaN,,23.618,,0 / 31,5341,2018-11-06 12:00:14:852
1.1277,2.5019,4.3263,-0.3562,2.6324,9.44,1.4628,0.0259,-4.5532,0.133,-0.6064,-0.0387,613,21.02,42.08,-12.89,336.18,-15.46,2.79,5,38.981,12.922314,77.68371,829.5,NaN,,23.618,,0 / 31,5350,2018-11-06 12:00:14:861
0.6608,3.0478,3.9911,-0.2943,2.6802,9.4287,0.9369,0.5329,-4.856,0.2662,-0.2144,-0.2794,613,18.47,42.38,-13.34,338.26,-15.86,1.79,5,40.432,12.922314,77.68371,829.5,NaN,,23.618,,0 / 31,5360,2018-11-06 12:00:14:871
0.6608,3.0478,3.9911,-0.2943,2.6802,9.4287,0.9369,0.5329,-4.856,0.2662,-0.2144,-0.2794,613,18.47,42.38,-13.34,338.26,-15.86,1.79,5,40.432,12.922314,77.68371,829.5,NaN,,23.618,,0 / 31,5370,2018-11-06 12:00:14:881
0.1269,3.2896,4.0151,-0.3007,2.7269,9.4151,0.4086,0.7357,-4.8031,0.2928,0.0434,-0.3561,613,18.62,41.47,-13.49,338.26,-15.86,1.79,5,40.432,12.922314,77.68371,829.5,NaN,,23.618,,0 / 31,5381,2018-11-06 12:00:14:892
0.1269,3.2896,4.0151,-0.3007,2.7269,9.4151,0.4086,0.7357,-4.8031,0.2928,0.0434,-0.3561,613,18.62,41.47,-13.49,338.26,-15.86,1.79,5,40.432,12.922314,77.68371,829.5,NaN,,23.618,,0 / 31,5391,2018-11-06 12:00:14:902
-0.4453,3.3543,4.6855,-0.3602,2.7824,9.3968,-0.1087,0.754,-4.0963,0.231,0.2863,-0.3774,613,18.47,41.63,-14.09,338.56,-16.48,2.2,5,40.432,12.922314,77.68371,829.5,NaN,,23.618,,0 / 31,5401,2018-11-06 12:00:14:912
-0.9194,3.4141,5.3558,-0.4217,2.8122,9.3853,-0.5258,0.7895,-3.4035,0.1532,0.3215,-0.3455,613,18.47,41.63,-14.09,338.56,-16.48,2.2,5,40.432,12.922314,77.68371,829.5,NaN,,23.618,,0 / 31,5411,2018-11-06 12:00:14:922
-0.9194,3.4141,5.3558,-0.4217,2.8122,9.3853,-0.5258,0.7895,-3.4035,0.1532,0.3215,-0.3455,613,18.47,41.63,-14.09,338.56,-16.48,2.2,5,40.432,12.922314,77.68371,829.5,NaN,,23.618,,0 / 31,5420,2018-11-06 12:00:14:931
-1.4557,3.7493,6.1339,-0.4757,2.8291,9.3776,-1.0121,1.1115,-2.6096,0.0531,0.2384,-0.2453,613,19.22,42.68,-14.69,338.56,-16.48,2.2,5,40.432,12.922314,77.68371,829.5,NaN,,23.618,,0 / 31,5430,2018-11-06 12:00:14:941
-1.9824,3.9193,7.1539,-0.5082,2.8311,9.3753,-1.5089,1.2817,-1.5806,-0.079,0.0232,0.0029,613,19.22,42.68,-14.69,338.56,-16.48,2.2,5,40.432,12.922314,77.68371,829.5,NaN,,23.618,,0 / 31,5441,2018-11-06 12:00:14:952
-1.9824,3.9193,7.1539,-0.5082,2.8311,9.3753,-1.5089,1.2817,-1.5806,-0.079,0.0232,0.0029,613,18.77,41.33,-15.44,337.52,-16.78,3.1,5,40.432,12.922314,77.68371,829.5,NaN,,23.618,,0 / 31,5450,2018-11-06 12:00:14:961
-2.0758,3.972,7.8027,-0.4976,2.8191,9.3795,-1.6123,1.3463,-0.9334,-0.1685,-0.1238,0.2383,754,18.77,41.33,-15.44,337.52,-16.78,3.1,5,40.432,12.922314,77.68371,829.5,NaN,,23.618,,0 / 31,5460,2018-11-06 12:00:14:971
-2.0758,3.972,7.8027,-0.4976,2.8191,9.3795,-1.6123,1.3463,-0.9334,-0.1685,-0.1238,0.2383,754,19.37,40.73,-14.99,337.52,-16.78,3.1,5,40.432,12.922314,77.68371,829.5,NaN,,23.618,,0 / 31,5470,2018-11-06 12:00:14:981
-1.5395,3.7757,8.5688,-0.4539,2.7978,9.3881,-1.1382,1.1777,-0.1786,-0.2388,-0.3752,0.5227,754,19.37,40.73,-14.99,337.52,-16.78,3.1,5,40.432,12.922314,77.68371,829.5,NaN,,23.618,,0 / 31,5481,2018-11-06 12:00:14:992
-1.5395,3.7757,8.5688,-0.4539,2.7978,9.3881,-1.1382,1.1777,-0.1786,-0.2388,-0.3752,0.5227,754,18.02,42.38,-15.74,339.1,-16.58,2.77,5,40.432,12.922314,77.68371,829.5,NaN,,23.618,,0 / 31,5491,2018-11-06 12:00:15:002
-0.7111,3.3064,8.655,-0.3403,2.7618,9.4036,-0.3941,0.7339,-0.1041,-0.2558,-0.5457,0.641,754,18.02,42.38,-15.74,339.1,-16.58,2.77,5,40.432,12.922314,77.68371,829.5,NaN,,23.618,,0 / 31,5500,2018-11-06 12:00:15:011
0.2131,3.1053,8.7221,-0.228,2.7277,9.4169,0.4255,0.5645,-0.0497,-0.2995,-0.6447,0.6186,754,20.57,39.83,-16.19,339.1,-16.58,2.77,5,40.432,12.922314,77.68371,829.5,NaN,,23.618,,0 / 31,5511,2018-11-06 12:00:15:022
0.2131,3.1053,8.7221,-0.228,2.7277,9.4169,0.4255,0.5645,-0.0497,-0.2995,-0.6447,0.6186,754,20.57,39.83,-16.19,339.1,-16.58,2.77,5,40.432,12.922314,77.68371,829.5,NaN,,23.618,,0 / 31,5520,2018-11-06 12:00:15:031
1.0367,3.0574,9.5768,-0.0769,2.6707,9.4357,1.1083,0.5689,0.7851,-0.3293,-0.6256,0.396,754,20.27,40.28,-17.24,335.66,-16.15,1.39,5,40.432,12.922314,77.68371,829.5,NaN,,23.618,,0 / 31,5531,2018-11-06 12:00:15:042
1.0367,3.0574,9.5768,-0.0769,2.6707,9.4357,1.1083,0.5689,0.7851,-0.3293,-0.6256,0.396,754,20.27,40.28,-17.24,335.66,-16.15,1.39,5,40.432,12.922314,77.68371,829.5,NaN,,23.618,,0 / 31,5540,2018-11-06 12:00:15:051
1.4653,3.146,10.5225,0.0125,2.6326,9.4467,1.4536,0.6915,1.7151,-0.2462,-0.4828,0.1478,754,20.42,39.68,-16.04,335.66,-16.15,1.39,5,40.432,12.922314,77.68371,829.5,NaN,,23.618,,0 / 31,5551,2018-11-06 12:00:15:062
1.3839,2.9832,11.5927,0.0784,2.6136,9.4516,1.3107,0.543,2.7684,-0.0076,-0.2634,-0.2315,923,20.42,39.68,-16.04,335.66,-16.15,1.39,5,40.432,12.922314,77.68371,829.5,NaN,,23.618,,0 / 31,5561,2018-11-06 12:00:15:072
1.3839,2.9832,11.5927,0.0784,2.6136,9.4516,1.3107,0.543,2.7684,-0.0076,-0.2634,-0.2315,923,20.72,39.08,-16.34,333.19,-15.46,-0.48,5,40.432,12.922314,77.68371,829.5,NaN,,23.618,,0 / 31,5571,2018-11-06 12:00:15:082
0.7278,2.7629,11.7388,0.0982,2.6275,9.4476,0.636,0.3069,2.9078,0.1575,-0.2282,-0.4829,923,20.72,39.08,-16.34,333.19,-15.46,-0.48,5,40.432,12.922314,77.68371,829.5,NaN,,23.618,,0 / 31,5581,2018-11-06 12:00:15:092
0.7278,2.7629,11.7388,0.0982,2.6275,9.4476,0.636,0.3069,2.9078,0.1575,-0.2282,-0.4829,923,21.02,40.58,-15.74,333.19,-15.46,-0.48,5,40.432,12.922314,77.68371,829.5,NaN,,23.618,,0 / 31,5590,2018-11-06 12:00:15:101
-0.0575,2.5259,11.2958,0.1075,2.6555,9.4397,-0.1581,0.0411,2.463,0.2225,-0.2314,-0.6618,923,18.32,39.08,-17.09,336.62,-15.71,-0.65,5,40.432,12.922314,77.68371,829.5,NaN,,23.618,,0 / 31,5601,2018-11-06 12:00:15:112
-0.9936,2.7007,10.6781,0.0929,2.683,9.432,-1.0806,0.1874,1.8429,0.0765,-0.0993,-0.8057,923,18.32,39.08,-17.09,336.62,-15.71,-0.65,5,40.432,12.922314,77.68371,829.5,NaN,,23.618,,0 / 31,5610,2018-11-06 12:00:15:121
-0.9936,2.7007,10.6781,0.0929,2.683,9.432,-1.0806,0.1874,1.8429,0.0765,-0.0993,-0.8057,923,18.32,39.08,-17.09,336.62,-15.71,-0.65,5,40.432,12.922314,77.68371,829.5,NaN,,23.618,,0 / 31,5621,2018-11-06 12:00:15:132
-1.8124,3.237,11.1977,0.0459,2.6727,9.4353,-1.8554,0.7312,2.3516,-0.1578,0.1595,-0.7918,923,18.77,39.53,-17.99,336.62,-15.71,-0.65,5,40.432,12.922314,77.68371,829.5,NaN,,23.618,,0 / 31,5631,2018-11-06 12:00:15:142
-1.8124,3.237,11.1977,0.0459,2.6727,9.4353,-1.8554,0.7312,2.3516,-0.1578,0.1595,-0.7918,923,18.77,39.53,-17.99,336.62,-15.71,-0.65,5,40.432,12.922314,77.68371,829.5,NaN,,23.618,,0 / 31,5640,2018-11-06 12:00:15:151
-1.7142,4.0965,13.1202,-0.0692,2.6175,9.4506,-1.6492,1.6375,4.242,-0.3602,0.4898,-0.5585,923,19.67,39.38,-16.64,334.76,-15.48,0.42,5,40.432,12.922314,77.68371,829.5,NaN,,23.618,,0 / 31,5651,2018-11-06 12:00:15:162
-0.8954,3.9337,14.0444,-0.1629,2.571,9.4622,-0.7421,1.5133,5.1364,-0.3091,0.5281,-0.3167,923,19.67,39.38,-16.64,334.76,-15.48,0.42,5,40.432,12.922314,77.68371,829.5,NaN,,23.618,,0 / 31,5660,2018-11-06 12:00:15:171
-0.8954,3.9337,14.0444,-0.1629,2.571,9.4622,-0.7421,1.5133,5.1364,-0.3091,0.5281,-0.3167,967,19.22,39.83,-15.44,334.76,-15.48,0.42,5,40.432,12.922314,77.68371,829.5,NaN,,23.618,,0 / 31,5671,2018-11-06 12:00:15:182
0.0742,3.0813,14.2311,-0.2271,2.5387,9.4696,0.2885,0.6861,5.2967,-0.1599,0.3225,-0.1527,967,19.22,39.83,-15.44,334.76,-15.48,0.42,5,40.432,12.922314,77.68371,829.5,NaN,,23.618,,0 / 31,5680,2018-11-06 12:00:15:191
0.0742,3.0813,14.2311,-0.2271,2.5387,9.4696,0.2885,0.6861,5.2967,-0.1599,0.3225,-0.1527,967,18.02,37.43,-16.94,336.4,-15,1.37,5,40.432,12.922314,77.68371,829.5,NaN,,23.618,,0 / 31,5690,2018-11-06 12:00:15:201
